Folder: Master2018/Lab/Characterization/Linear_Sweep_Voltammetry/002 (part 2)

File: LSV_CU2O 002_0 TO -0,8V_light chopped.DTA
EXPLAIN
TAG	LSV
TITLE	LABEL	Linear Sweep Voltammetry	Test &Identifier
DATE	LABEL	6.4.2017	Date
TIME	LABEL	11:18:14	Time
NOTES	NOTES	2	&Notes...
	solar sim

PSTAT	PSTAT	REF3000-31107	Potentiostat
VINIT	POTEN	0,00000E+000	F	&Initial E (V)
VFINAL	POTEN	-8,00000E-001	F	&Final E (V)
SCANRATE	QUANT	9,99998E+000	&Scan Rate (mV/s)
STEPSIZE	QUANT	2,00000E+000	St&ep Size (mV)
IMODE	SELECTOR	1	I/E Range &Mode
IRANGE	QUANT	1,00000E+001	&Max Current (mA)
AREA	QUANT	1,00000E+000	Electrode &Area (cm^2)
ELECTRODETYPE	SELECTOR	1	Electrode Type
STRIPPING	TOGGLE	F	Used for Stripping
POLARITY	TOGGLE	F	Signal Polarity
CONDIT	TWOPARAM	F	3,00000E+001	0,00000E+000	Conditionin&g	Time(s)	E(V)
DELAY	TWOPARAM	F	3,00000E+001	0,00000E+000	Init. De&lay	Time(s)	Stab.(mV/s)
EQDELAY	QUANT	5,00000E+000	Equil. &Time (s)
IRCOMP	SELECTOR	0	IRCom&p
PFCOR	QUANT	5,00000E+001	PF Corr. (ohm)
SAMPLINGMODE	SELECTOR	1	Sampling &Mode
EOC	QUANT	0	Open Circuit (V)
PSTATMODEL	IQUANT	5	Pstat Model
PSTATSECTION	LABEL	REF3000-31107	Pstat Section
PSTATSERIALNO	LABEL	31107	Pstat Serial Number
CTRLMODE	IQUANT	1	Control Mode
ELECTROMETER	IQUANT	0	RE=0 or CS=1
IESTAB	IQUANT	2	I/E Stability
CASPEED	IQUANT	4	Control Amp Speed
CONVENTION	IQUANT	1	Current Convention
ICHRANGE	IQUANT	2	Ich Range
ICHRANGEMODE	TOGGLE	F	Ich Auto Range
ICHOFFSETENABLE	TOGGLE	F	Ich Offset Enable
ICHOFFSET	QUANT	0	Ich Offset (V)
ICHFILTER	IQUANT	3	Ich Filter
VCHRANGE	IQUANT	2	Vch Range
VCHRANGEMODE	TOGGLE	T	Vch Auto Range
VCHOFFSETENABLE	TOGGLE	F	Vch Offset Enable
VCHOFFSET	QUANT	0	Vch Offset (V)
VCHFILTER	IQUANT	3	Vch Filter
ACHRANGE	IQUANT	2	Ach Range
ACHOFFSETENABLE	TOGGLE	F	Ach Offset Enable
ACHOFFSET	QUANT	0	Ach Offset (V)
ACHFILTER	IQUANT	1	Ach Filter
IERANGELOWERLIMIT	IQUANT	2	I/E Range Lower Limit
IERANGEMODE	TOGGLE	F	I/E AutoRange
IERANGE	IQUANT	10	I/E Range
POSFEEDENABLE	TOGGLE	F	Positive Feedback IR Comp
POSFEEDRESISTANCE	QUANT	0	Positive Feedback Resistance (ohm)
ACHSELECT	IQUANT	1	Ach Select
CABLEID	IQUANT	14	Cable ID
DCCALDATE	LABEL	18.5.2016	DC Calibration Date
ACCALDATE	LABEL	18.5.2016	AC Calibration Date
THERMOSELECT	IQUANT	1	Thermo Select
FRAMEWORKVERSION	QUANT	7,03	Framework Version
INSTRUMENTVERSION	LABEL	4.15	Instrument Version
COMPLIANCEVOLTAGE	IQUANT	0	Compliance Voltage
CURVE	TABLE	401
	Pt	T	Vf	Im	Vu	Sig	Ach	IERange	Over	Cycle
	#	s	V vs. Ref.	A	V	V	V	#	bits	#
	0	0,2	3,60675E-004	1,92386E-005	0,00000E+000	-2,98023E-008	-2,11656E-004	10	...........	0
	4	1	-7,60527E-003	9,15972E-006	0,00000E+000	-8,00002E-003	-2,28356E-004	10	...........	0
	8	1,8	-1,55984E-002	2,78904E-006	0,00000E+000	-1,60000E-002	-2,17306E-004	10	...........	0
	12	2,6	-2,35985E-002	-1,81583E-006	0,00000E+000	-2,40000E-002	-2,25206E-004	10	...........	0
	16	3,4	-3,15997E-002	1,19524E-006	0,00000E+000	-3,20000E-002	-2,25456E-004	10	...........	0
	20	4,2	-3,95988E-002	-6,65239E-006	0,00000E+000	-4,00000E-002	-2,22756E-004	10	...........	0
	24	5	-4,75980E-002	-9,61932E-006	0,00000E+000	-4,80000E-002	-2,16756E-004	10	...........	0
	28	5,8	-5,55919E-002	-1,38992E-005	0,00000E+000	-5,60000E-002	-2,24706E-004	10	...........	0
	32	6,6	-6,35858E-002	-1,36209E-005	0,00000E+000	-6,40000E-002	-2,27006E-004	10	...........	0
	36	7,4	-7,15799E-002	-1,03149E-005	0,00000E+000	-7,20000E-002	-2,11106E-004	10	...........	0
	40	8,2	-7,95762E-002	-1,41645E-005	0,00000E+000	-8,00000E-002	-2,20206E-004	10	...........	0
	44	9	-8,75692E-002	-1,50612E-005	0,00000E+000	-8,80000E-002	-2,22706E-004	10	...........	0
	48	9,8	-9,55594E-002	-1,60050E-005	0,00000E+000	-9,60000E-002	-2,26956E-004	10	...........	0
	52	10,6	-1,03556E-001	-1,54474E-005	0,00000E+000	-1,04000E-001	-2,30256E-004	10	...........	0
	56	11,4	-1,11549E-001	-1,46941E-005	0,00000E+000	-1,12000E-001	-2,26406E-004	10	...........	0
	60	12,2	-1,19540E-001	-1,65918E-005	0,00000E+000	-1,20000E-001	-2,26656E-004	10	...........	0
	64	13	-1,27536E-001	-1,69168E-005	0,00000E+000	-1,28000E-001	-2,32256E-004	10	...........	0
	68	13,8	-1,35532E-001	-1,55226E-005	0,00000E+000	-1,36000E-001	-2,26056E-004	10	...........	0
	72	14,6	-1,43522E-001	-1,54233E-005	0,00000E+000	-1,44000E-001	-2,24706E-004	10	...........	0
	76	15,4	-1,51516E-001	-1,65356E-005	0,00000E+000	-1,52000E-001	-2,17156E-004	10	...........	0
	80	16,2	-1,59512E-001	-1,71585E-005	0,00000E+000	-1,60000E-001	-2,25256E-004	10	...........	0
	84	17	-1,67510E-001	-1,73917E-005	0,00000E+000	-1,68000E-001	-2,27856E-004	10	...........	0
	88	17,8	-1,75500E-001	-1,56610E-005	0,00000E+000	-1,76000E-001	-2,25806E-004	10	...........	0
	92	18,6	-1,83499E-001	-1,53566E-005	0,00000E+000	-1,84000E-001	-2,29606E-004	10	...........	0
	96	19,4	-1,91500E-001	-1,83170E-005	0,00000E+000	-1,92000E-001	-2,28606E-004	10	...........	0
	100	20,2	-1,99490E-001	-1,89178E-005	0,00000E+000	-2,00000E-001	-2,28956E-004	10	...........	0
	104	21	-2,07483E-001	-1,92769E-005	0,00000E+000	-2,08000E-001	-2,34206E-004	10	...........	0
	108	21,8	-2,15475E-001	-1,61174E-005	0,00000E+000	-2,16000E-001	-2,22956E-004	10	...........	0
	112	22,6	-2,23469E-001	-1,63240E-005	0,00000E+000	-2,24000E-001	-2,27806E-004	10	...........	0
	116	23,4	-2,31464E-001	-2,16475E-005	0,00000E+000	-2,32000E-001	-2,24856E-004	10	...........	0
	120	24,2	-2,39451E-001	-2,20111E-005	0,00000E+000	-2,40000E-001	-2,21156E-004	10	...........	0
	124	25	-2,47449E-001	-2,25538E-005	0,00000E+000	-2,48000E-001	-2,25756E-004	10	...........	0
	128	25,8	-2,55446E-001	-1,76124E-005	0,00000E+000	-2,56000E-001	-2,26806E-004	10	...........	0
	132	26,6	-2,63437E-001	-1,81706E-005	0,00000E+000	-2,64000E-001	-2,28006E-004	10	...........	0
	136	27,4	-2,71426E-001	-2,67720E-005	0,00000E+000	-2,72000E-001	-2,14506E-004	10	...........	0
	140	28,2	-2,79425E-001	-2,71571E-005	0,00000E+000	-2,80000E-001	-2,16656E-004	10	...........	0
	144	29	-2,87413E-001	-2,83963E-005	0,00000E+000	-2,88000E-001	-2,19406E-004	10	...........	0
	148	29,8	-2,95415E-001	-1,93662E-005	0,00000E+000	-2,96000E-001	-2,28856E-004	10	...........	0
	152	30,6	-3,03411E-001	-2,00848E-005	0,00000E+000	-3,04000E-001	-2,32156E-004	10	...........	0
	156	31,4	-3,11373E-001	-3,44857E-005	0,00000E+000	-3,12000E-001	-2,34006E-004	10	...........	0
	160	32,2	-3,19392E-001	-3,52179E-005	0,00000E+000	-3,20000E-001	-2,35956E-004	10	...........	0
	164	33	-3,27379E-001	-3,66261E-005	0,00000E+000	-3,28000E-001	-2,27106E-004	10	...........	0
	168	33,8	-3,35359E-001	-2,26841E-005	0,00000E+000	-3,36000E-001	-2,27656E-004	10	...........	0
	172	34,6	-3,43387E-001	-2,42263E-005	0,00000E+000	-3,44000E-001	-2,21306E-004	10	...........	0
	176	35,4	-3,51364E-001	-4,61864E-005	0,00000E+000	-3,52000E-001	-2,24256E-004	10	...........	0
	180	36,2	-3,59348E-001	-4,64101E-005	0,00000E+000	-3,60000E-001	-2,25606E-004	10	...........	0
	184	37	-3,67357E-001	-4,77762E-005	0,00000E+000	-3,68000E-001	-2,27206E-004	10	...........	0
	188	37,8	-3,75347E-001	-2,66767E-005	0,00000E+000	-3,76000E-001	-2,17206E-004	10	...........	0
	192	38,6	-3,83359E-001	-2,83116E-005	0,00000E+000	-3,84000E-001	-2,21106E-004	10	...........	0
	196	39,4	-3,91339E-001	-6,03957E-005	0,00000E+000	-3,92000E-001	-2,25156E-004	10	...........	0
	200	40,2	-3,99343E-001	-6,02347E-005	0,00000E+000	-4,00000E-001	-2,24856E-004	10	...........	0
	204	41	-4,07343E-001	-6,18606E-005	0,00000E+000	-4,08000E-001	-2,25256E-004	10	...........	0
[...]
	252	50,6	-5,03255E-001	-5,10606E-005	0,00000E+000	-5,04000E-001	-2,35706E-004	10	...........	0
	256	51,4	-5,11279E-001	-1,27527E-004	0,00000E+000	-5,12000E-001	-2,26506E-004	10	...........	0
	260	52,2	-5,19228E-001	-1,33318E-004	0,00000E+000	-5,20000E-001	-2,24006E-004	10	...........	0
	264	53	-5,27220E-001	-1,39630E-004	0,00000E+000	-5,28000E-001	-2,18956E-004	10	...........	0
	268	53,8	-5,35217E-001	-6,08726E-005	0,00000E+000	-5,36000E-001	-2,22406E-004	10	...........	0
	272	54,6	-5,43204E-001	-6,29469E-005	0,00000E+000	-5,44000E-001	-2,27406E-004	10	...........	0
	276	55,4	-5,51205E-001	-1,67686E-004	0,00000E+000	-5,52000E-001	-2,16956E-004	10	...........	0
	280	56,2	-5,59202E-001	-1,77580E-004	0,00000E+000	-5,60000E-001	-2,25606E-004	10	...........	0
	284	57	-5,67183E-001	-1,71153E-004	0,00000E+000	-5,68000E-001	-2,18556E-004	10	...........	0
	288	57,8	-5,75205E-001	-7,55548E-005	0,00000E+000	-5,76000E-001	-2,21606E-004	10	...........	0
	292	58,6	-5,83190E-001	-7,67228E-005	0,00000E+000	-5,84000E-001	-2,22356E-004	10	...........	0
	296	59,4	-5,91160E-001	-2,18012E-004	0,00000E+000	-5,92000E-001	-2,36506E-004	10	...........	0
	300	60,2	-5,99168E-001	-2,29886E-004	0,00000E+000	-6,00000E-001	-2,40456E-004	10	...........	0
	304	61	-6,07180E-001	-1,88244E-004	0,00000E+000	-6,08000E-001	-2,32106E-004	10	...........	0
	308	61,8	-6,15156E-001	-9,32777E-005	0,00000E+000	-6,16000E-001	-2,23956E-004	10	...........	0
	312	62,6	-6,23171E-001	-9,32742E-005	0,00000E+000	-6,24000E-001	-2,27506E-004	10	...........	0
	316	63,4	-6,31156E-001	-2,74478E-004	0,00000E+000	-6,32000E-001	-2,44606E-004	10	...........	0
	320	64,2	-6,39156E-001	-2,89530E-004	0,00000E+000	-6,40000E-001	-2,42956E-004	10	...........	0
	324	65	-6,47140E-001	-2,01789E-004	0,00000E+000	-6,48000E-001	-2,30306E-004	10	...........	0
	328	65,8	-6,55157E-001	-1,12175E-004	0,00000E+000	-6,56000E-001	-2,24456E-004	10	...........	0
	332	66,6	-6,63146E-001	-1,11262E-004	0,00000E+000	-6,64000E-001	-2,28506E-004	10	...........	0
	336	67,4	-6,71123E-001	-3,35819E-004	0,00000E+000	-6,72000E-001	-2,37006E-004	10	...........	0
	340	68,2	-6,79131E-001	-3,51793E-004	0,00000E+000	-6,80000E-001	-2,41456E-004	10	...........	0
	344	69	-6,87130E-001	-2,19095E-004	0,00000E+000	-6,88000E-001	-2,38356E-004	10	...........	0
	348	69,8	-6,95117E-001	-1,33888E-004	0,00000E+000	-6,96000E-001	-2,20256E-004	10	...........	0
	352	70,6	-7,03138E-001	-1,32239E-004	0,00000E+000	-7,04000E-001	-2,30556E-004	10	...........	0
	356	71,4	-7,11130E-001	-3,99000E-004	0,00000E+000	-7,12000E-001	-2,27706E-004	10	...........	0
	360	72,2	-7,19082E-001	-4,14851E-004	0,00000E+000	-7,20000E-001	-2,14106E-004	10	...........	0
	364	73	-7,27115E-001	-2,47287E-004	0,00000E+000	-7,28000E-001	-2,39256E-004	10	...........	0
	368	73,8	-7,35096E-001	-1,59527E-004	0,00000E+000	-7,36000E-001	-2,16956E-004	10	...........	0
	372	74,6	-7,43074E-001	-1,58583E-004	0,00000E+000	-7,44000E-001	-2,22606E-004	10	...........	0
	376	75,4	-7,51093E-001	-4,62239E-004	0,00000E+000	-7,52000E-001	-2,22806E-004	10	...........	0
	380	76,2	-7,59072E-001	-4,77287E-004	0,00000E+000	-7,60000E-001	-2,28806E-004	10	...........	0
	384	77	-7,67087E-001	-2,74668E-004	0,00000E+000	-7,68000E-001	-2,41756E-004	10	...........	0
	388	77,8	-7,75064E-001	-1,90397E-004	0,00000E+000	-7,76000E-001	-2,32506E-004	10	...........	0
	392	78,6	-7,83057E-001	-1,91640E-004	0,00000E+000	-7,84000E-001	-2,37406E-004	10	...........	0
	396	79,4	-7,91058E-001	-5,23721E-004	0,00000E+000	-7,92000E-001	-2,27756E-004	10	...........	0
	400	80,2	-7,99041E-001	-5,36740E-004	0,00000E+000	-8,00000E-001	-2,33456E-004	10	...........	0

File: LSV_CU2O 002_0 TO -1V_light chopped.DTA
EXPLAIN
TAG	LSV
TITLE	LABEL	Linear Sweep Voltammetry	Test &Identifier
DATE	LABEL	6.4.2017	Date
TIME	LABEL	11:23:59	Time
NOTES	NOTES	2	&Notes...
	solar sim

PSTAT	PSTAT	REF3000-31107	Potentiostat
VINIT	POTEN	0,00000E+000	F	&Initial E (V)
VFINAL	POTEN	-1,00000E+000	F	&Final E (V)
SCANRATE	QUANT	9,99998E+000	&Scan Rate (mV/s)
STEPSIZE	QUANT	2,00000E+000	St&ep Size (mV)
IMODE	SELECTOR	1	I/E Range &Mode
IRANGE	QUANT	1,00000E+001	&Max Current (mA)
AREA	QUANT	1,00000E+000	Electrode &Area (cm^2)
ELECTRODETYPE	SELECTOR	1	Electrode Type
STRIPPING	TOGGLE	F	Used for Stripping
POLARITY	TOGGLE	F	Signal Polarity
CONDIT	TWOPARAM	F	3,00000E+001	0,00000E+000	Conditionin&g	Time(s)	E(V)
DELAY	TWOPARAM	F	3,00000E+001	0,00000E+000	Init. De&lay	Time(s)	Stab.(mV/s)
EQDELAY	QUANT	5,00000E+000	Equil. &Time (s)
IRCOMP	SELECTOR	0	IRCom&p
PFCOR	QUANT	5,00000E+001	PF Corr. (ohm)
SAMPLINGMODE	SELECTOR	1	Sampling &Mode
EOC	QUANT	0	Open Circuit (V)
PSTATMODEL	IQUANT	5	Pstat Model
PSTATSECTION	LABEL	REF3000-31107	Pstat Section
PSTATSERIALNO	LABEL	31107	Pstat Serial Number
CTRLMODE	IQUANT	1	Control Mode
ELECTROMETER	IQUANT	0	RE=0 or CS=1
IESTAB	IQUANT	2	I/E Stability
CASPEED	IQUANT	4	Control Amp Speed
CONVENTION	IQUANT	1	Current Convention
ICHRANGE	IQUANT	2	Ich Range
ICHRANGEMODE	TOGGLE	F	Ich Auto Range
ICHOFFSETENABLE	TOGGLE	F	Ich Offset Enable
ICHOFFSET	QUANT	0	Ich Offset (V)
ICHFILTER	IQUANT	3	Ich Filter
VCHRANGE	IQUANT	2	Vch Range
VCHRANGEMODE	TOGGLE	T	Vch Auto Range
VCHOFFSETENABLE	TOGGLE	F	Vch Offset Enable
VCHOFFSET	QUANT	0	Vch Offset (V)
VCHFILTER	IQUANT	3	Vch Filter
ACHRANGE	IQUANT	2	Ach Range
ACHOFFSETENABLE	TOGGLE	F	Ach Offset Enable
ACHOFFSET	QUANT	0	Ach Offset (V)
ACHFILTER	IQUANT	1	Ach Filter
IERANGELOWERLIMIT	IQUANT	2	I/E Range Lower Limit
IERANGEMODE	TOGGLE	F	I/E AutoRange
IERANGE	IQUANT	10	I/E Range
POSFEEDENABLE	TOGGLE	F	Positive Feedback IR Comp
POSFEEDRESISTANCE	QUANT	0	Positive Feedback Resistance (ohm)
ACHSELECT	IQUANT	1	Ach Select
CABLEID	IQUANT	14	Cable ID
DCCALDATE	LABEL	18.5.2016	DC Calibration Date
ACCALDATE	LABEL	18.5.2016	AC Calibration Date
THERMOSELECT	IQUANT	1	Thermo Select
FRAMEWORKVERSION	QUANT	7,03	Framework Version
INSTRUMENTVERSION	LABEL	4.15	Instrument Version
COMPLIANCEVOLTAGE	IQUANT	0	Compliance Voltage
CURVE	TABLE	501
	Pt	T	Vf	Im	Vu	Sig	Ach	IERange	Over	Cycle
	#	s	V vs. Ref.	A	V	V	V	#	bits	#
	0	0,2	5,42725E-004	1,57983E-004	0,00000E+000	0,00000E+000	-6,26756E-004	10	...........	0
	5	1,2	-9,59409E-003	1,22238E-004	0,00000E+000	-1,00000E-002	-5,94756E-004	10	...........	0
	10	2,2	-1,95818E-002	9,44204E-005	0,00000E+000	-2,00000E-002	-5,98306E-004	10	...........	0
	15	3,2	-2,95787E-002	7,12085E-005	0,00000E+000	-3,00000E-002	-6,11506E-004	10	...........	0
	20	4,2	-3,95683E-002	5,32815E-005	0,00000E+000	-4,00000E-002	-6,05006E-004	10	...........	0
	25	5,2	-4,95591E-002	3,34925E-005	0,00000E+000	-5,00000E-002	-6,28756E-004	10	...........	0
	30	6,2	-5,95546E-002	2,32436E-005	0,00000E+000	-6,00000E-002	-6,02506E-004	10	...........	0
	35	7,2	-6,95437E-002	1,47661E-005	0,00000E+000	-7,00000E-002	-6,27106E-004	10	...........	0
	40	8,2	-7,95331E-002	8,67726E-006	0,00000E+000	-8,00000E-002	-5,97856E-004	10	...........	0
	45	9,2	-8,95284E-002	-4,73511E-006	0,00000E+000	-9,00000E-002	-6,21856E-004	10	...........	0
	50	10,2	-9,95144E-002	-7,62732E-006	0,00000E+000	-1,00000E-001	-6,17906E-004	10	...........	0
	55	11,2	-1,09510E-001	-8,74418E-006	0,00000E+000	-1,10000E-001	-6,20206E-004	10	...........	0
	60	12,2	-1,19506E-001	-1,04578E-005	0,00000E+000	-1,20000E-001	-5,98656E-004	10	...........	0
	65	13,2	-1,29494E-001	-2,06505E-005	0,00000E+000	-1,30000E-001	-6,29606E-004	10	...........	0
	70	14,2	-1,39485E-001	-1,92583E-005	0,00000E+000	-1,40000E-001	-6,17106E-004	10	...........	0
	75	15,2	-1,49476E-001	-1,60687E-005	0,00000E+000	-1,50000E-001	-6,07556E-004	10	...........	0
	80	16,2	-1,59463E-001	-1,56700E-005	0,00000E+000	-1,60000E-001	-6,04356E-004	10	...........	0
	85	17,2	-1,69461E-001	-2,52338E-005	0,00000E+000	-1,70000E-001	-6,27106E-004	10	...........	0
	90	18,2	-1,79456E-001	-2,16781E-005	0,00000E+000	-1,80000E-001	-6,13606E-004	10	...........	0
	95	19,2	-1,89452E-001	-1,61219E-005	0,00000E+000	-1,90000E-001	-6,01606E-004	10	...........	0
	100	20,2	-1,99441E-001	-1,65392E-005	0,00000E+000	-2,00000E-001	-5,89006E-004	10	...........	0
	105	21,2	-2,09431E-001	-2,80969E-005	0,00000E+000	-2,10000E-001	-5,90706E-004	10	...........	0
	110	22,2	-2,19420E-001	-2,45718E-005	0,00000E+000	-2,20000E-001	-6,18306E-004	10	...........	0
	115	23,2	-2,29413E-001	-1,72919E-005	0,00000E+000	-2,30000E-001	-6,02506E-004	10	...........	0
	120	24,2	-2,39404E-001	-1,87949E-005	0,00000E+000	-2,40000E-001	-6,16756E-004	10	...........	0
	125	25,2	-2,49394E-001	-3,31356E-005	0,00000E+000	-2,50000E-001	-6,13606E-004	10	...........	0
	130	26,2	-2,59383E-001	-2,95127E-005	0,00000E+000	-2,60000E-001	-6,11556E-004	10	...........	0
	135	27,2	-2,69259E-001	-2,01596E-005	0,00000E+000	-2,70000E-001	-6,09456E-004	10	...........	0
	140	28,2	-2,79254E-001	-2,20076E-005	0,00000E+000	-2,80000E-001	-6,06006E-004	10	...........	0
	145	29,2	-2,89236E-001	-4,09707E-005	0,00000E+000	-2,90000E-001	-6,06456E-004	10	...........	0
	150	30,2	-2,99230E-001	-3,75614E-005	0,00000E+000	-3,00000E-001	-6,16806E-004	10	...........	0
	155	31,2	-3,09199E-001	-2,45237E-005	0,00000E+000	-3,10000E-001	-5,99106E-004	10	...........	0
	160	32,2	-3,19186E-001	-2,65042E-005	0,00000E+000	-3,20000E-001	-6,21856E-004	10	...........	0
	165	33,2	-3,29199E-001	-5,12572E-005	0,00000E+000	-3,30000E-001	-6,05206E-004	10	...........	0
	170	34,2	-3,39168E-001	-4,82596E-005	0,00000E+000	-3,40000E-001	-6,31306E-004	10	...........	0
	175	35,2	-3,49182E-001	-2,97163E-005	0,00000E+000	-3,50000E-001	-6,17606E-004	10	...........	0
	180	36,2	-3,59164E-001	-3,21908E-005	0,00000E+000	-3,60000E-001	-6,15356E-004	10	...........	0
	185	37,2	-3,69142E-001	-6,48325E-005	0,00000E+000	-3,70000E-001	-6,26806E-004	10	...........	0
	190	38,2	-3,79159E-001	-6,21650E-005	0,00000E+000	-3,80000E-001	-6,18206E-004	10	...........	0
	195	39,2	-3,89156E-001	-3,76121E-005	0,00000E+000	-3,90000E-001	-5,90056E-004	10	...........	0
	200	40,2	-3,99163E-001	-3,94446E-005	0,00000E+000	-4,00000E-001	-5,93406E-004	10	...........	0
	205	41,2	-4,09147E-001	-8,11537E-005	0,00000E+000	-4,10000E-001	-6,26156E-004	10	...........	0
	210	42,2	-4,19096E-001	-7,85167E-005	0,00000E+000	-4,20000E-001	-5,97106E-004	10	...........	0
	215	43,2	-4,29106E-001	-4,74958E-005	0,00000E+000	-4,30000E-001	-6,24056E-004	10	...........	0
	220	44,2	-4,39084E-001	-4,93850E-005	0,00000E+000	-4,40000E-001	-6,29406E-004	10	...........	0
	225	45,2	-4,49105E-001	-9,95977E-005	0,00000E+000	-4,50000E-001	-6,11306E-004	10	...........	0
	230	46,2	-4,59098E-001	-9,80831E-005	0,00000E+000	-4,60000E-001	-6,13506E-004	10	...........	0
	235	47,2	-4,69072E-001	-6,00888E-005	0,00000E+000	-4,70000E-001	-6,11356E-004	10	...........	0
	240	48,2	-4,79082E-001	-6,16434E-005	0,00000E+000	-4,80000E-001	-6,20506E-004	10	...........	0
	245	49,2	-4,89076E-001	-1,18965E-004	0,00000E+000	-4,90000E-001	-6,09806E-004	10	...........	0
	250	50,2	-4,99066E-001	-1,17860E-004	0,00000E+000	-5,00000E-001	-6,12656E-004	10	...........	0
	255	51,2	-5,09074E-001	-7,40959E-005	0,00000E+000	-5,10000E-001	-5,99506E-004	10	...........	0
[...]
	315	63,2	-6,28953E-001	-1,10259E-004	0,00000E+000	-6,30000E-001	-6,40956E-004	10	...........	0
	320	64,2	-6,38968E-001	-1,07899E-004	0,00000E+000	-6,40000E-001	-6,21206E-004	10	...........	0
	325	65,2	-6,48929E-001	-2,06843E-004	0,00000E+000	-6,50000E-001	-6,15856E-004	10	...........	0
	330	66,2	-6,58939E-001	-2,19212E-004	0,00000E+000	-6,60000E-001	-6,28656E-004	10	...........	0
	335	67,2	-6,68936E-001	-1,28027E-004	0,00000E+000	-6,70000E-001	-5,87506E-004	10	...........	0
	340	68,2	-6,78944E-001	-1,27198E-004	0,00000E+000	-6,80000E-001	-5,88556E-004	10	...........	0
	345	69,2	-6,88932E-001	-2,50507E-004	0,00000E+000	-6,90000E-001	-6,16406E-004	10	...........	0
	350	70,2	-6,98907E-001	-2,64421E-004	0,00000E+000	-7,00000E-001	-6,15256E-004	10	...........	0
	355	71,2	-7,08920E-001	-1,52298E-004	0,00000E+000	-7,10000E-001	-6,09406E-004	10	...........	0
	360	72,2	-7,18884E-001	-1,52177E-004	0,00000E+000	-7,20000E-001	-6,07806E-004	10	...........	0
	365	73,2	-7,28870E-001	-2,98414E-004	0,00000E+000	-7,30000E-001	-6,04006E-004	10	...........	0
	370	74,2	-7,38870E-001	-3,13073E-004	0,00000E+000	-7,40000E-001	-6,22756E-004	10	...........	0
	375	75,2	-7,48855E-001	-1,80249E-004	0,00000E+000	-7,50000E-001	-6,13106E-004	10	...........	0
	380	76,2	-7,58862E-001	-1,81881E-004	0,00000E+000	-7,60000E-001	-6,08506E-004	10	...........	0
	385	77,2	-7,68845E-001	-3,49246E-004	0,00000E+000	-7,70000E-001	-6,13306E-004	10	...........	0
	390	78,2	-7,78833E-001	-3,63282E-004	0,00000E+000	-7,80000E-001	-6,15356E-004	10	...........	0
	395	79,2	-7,88844E-001	-2,14258E-004	0,00000E+000	-7,90000E-001	-6,17656E-004	10	...........	0
	400	80,2	-7,98817E-001	-2,22138E-004	0,00000E+000	-8,00000E-001	-6,35206E-004	10	...........	0
	405	81,2	-8,08828E-001	-4,00478E-004	0,00000E+000	-8,10000E-001	-6,30456E-004	10	...........	0
	410	82,2	-8,18828E-001	-4,13266E-004	0,00000E+000	-8,20000E-001	-6,14006E-004	10	...........	0
	415	83,2	-8,28753E-001	-2,60641E-004	0,00000E+000	-8,30000E-001	-6,23406E-004	10	...........	0
	420	84,2	-8,38794E-001	-2,76697E-004	0,00000E+000	-8,40000E-001	-6,19456E-004	10	...........	0
	425	85,2	-8,48777E-001	-4,52737E-004	0,00000E+000	-8,50000E-001	-6,21756E-004	10	...........	0
	430	86,2	-8,58783E-001	-4,63567E-004	0,00000E+000	-8,60000E-001	-6,24756E-004	10	...........	0
	435	87,2	-8,68774E-001	-3,23577E-004	0,00000E+000	-8,70000E-001	-6,28956E-004	10	...........	0
	440	88,2	-8,78729E-001	-3,46415E-004	0,00000E+000	-8,80000E-001	-6,48656E-004	10	...........	0
	445	89,2	-8,88768E-001	-5,07108E-004	0,00000E+000	-8,90000E-001	-6,18456E-004	10	...........	0
	450	90,2	-8,98752E-001	-5,17917E-004	0,00000E+000	-9,00000E-001	-6,18806E-004	10	...........	0
	455	91,2	-9,08753E-001	-4,01676E-004	0,00000E+000	-9,10000E-001	-6,31756E-004	10	...........	0
	460	92,2	-9,18762E-001	-4,31000E-004	0,00000E+000	-9,20000E-001	-6,06456E-004	10	...........	0
	465	93,2	-9,28702E-001	-5,67288E-004	0,00000E+000	-9,30000E-001	-6,14156E-004	10	...........	0
	470	94,2	-9,38716E-001	-5,79346E-004	0,00000E+000	-9,40000E-001	-6,12256E-004	10	...........	0
	475	95,2	-9,48702E-001	-4,96765E-004	0,00000E+000	-9,50000E-001	-6,11706E-004	10	...........	0
	480	96,2	-9,58679E-001	-5,31883E-004	0,00000E+000	-9,60000E-001	-6,03856E-004	10	...........	0
	485	97,2	-9,68693E-001	-6,39786E-004	0,00000E+000	-9,70000E-001	-6,33956E-004	10	...........	0
	490	98,2	-9,78680E-001	-6,54773E-004	0,00000E+000	-9,80000E-001	-6,17106E-004	10	...........	0
	495	99,2	-9,88696E-001	-6,06546E-004	0,00000E+000	-9,90000E-001	-6,02806E-004	10	...........	0
	500	100,2	-9,98669E-001	-6,41426E-004	0,00000E+000	-1,00000E+000	-6,23406E-004	10	...........	0