Folder: Master2018/Lab/Characterization/Linear_Sweep_Voltammetry/002 (part 3)

File: LSV_CU2O 002_0 TO -1V_light chopped_2.DTA
EXPLAIN
TAG	LSV
TITLE	LABEL	Linear Sweep Voltammetry	Test &Identifier
DATE	LABEL	6.4.2017	Date
TIME	LABEL	11:27:47	Time
NOTES	NOTES	2	&Notes...
	solar sim

PSTAT	PSTAT	REF3000-31107	Potentiostat
VINIT	POTEN	0,00000E+000	F	&Initial E (V)
VFINAL	POTEN	-1,00000E+000	F	&Final E (V)
SCANRATE	QUANT	9,99998E+000	&Scan Rate (mV/s)
STEPSIZE	QUANT	2,00000E+000	St&ep Size (mV)
IMODE	SELECTOR	1	I/E Range &Mode
IRANGE	QUANT	1,00000E+001	&Max Current (mA)
AREA	QUANT	1,00000E+000	Electrode &Area (cm^2)
ELECTRODETYPE	SELECTOR	1	Electrode Type
STRIPPING	TOGGLE	F	Used for Stripping
POLARITY	TOGGLE	F	Signal Polarity
CONDIT	TWOPARAM	F	3,00000E+001	0,00000E+000	Conditionin&g	Time(s)	E(V)
DELAY	TWOPARAM	F	3,00000E+001	0,00000E+000	Init. De&lay	Time(s)	Stab.(mV/s)
EQDELAY	QUANT	5,00000E+000	Equil. &Time (s)
IRCOMP	SELECTOR	0	IRCom&p
PFCOR	QUANT	5,00000E+001	PF Corr. (ohm)
SAMPLINGMODE	SELECTOR	1	Sampling &Mode
EOC	QUANT	0	Open Circuit (V)
PSTATMODEL	IQUANT	5	Pstat Model
PSTATSECTION	LABEL	REF3000-31107	Pstat Section
PSTATSERIALNO	LABEL	31107	Pstat Serial Number
CTRLMODE	IQUANT	1	Control Mode
ELECTROMETER	IQUANT	0	RE=0 or CS=1
IESTAB	IQUANT	2	I/E Stability
CASPEED	IQUANT	4	Control Amp Speed
CONVENTION	IQUANT	1	Current Convention
ICHRANGE	IQUANT	2	Ich Range
ICHRANGEMODE	TOGGLE	F	Ich Auto Range
ICHOFFSETENABLE	TOGGLE	F	Ich Offset Enable
ICHOFFSET	QUANT	0	Ich Offset (V)
ICHFILTER	IQUANT	3	Ich Filter
VCHRANGE	IQUANT	2	Vch Range
VCHRANGEMODE	TOGGLE	T	Vch Auto Range
VCHOFFSETENABLE	TOGGLE	F	Vch Offset Enable
VCHOFFSET	QUANT	0	Vch Offset (V)
VCHFILTER	IQUANT	3	Vch Filter
ACHRANGE	IQUANT	2	Ach Range
ACHOFFSETENABLE	TOGGLE	F	Ach Offset Enable
ACHOFFSET	QUANT	0	Ach Offset (V)
ACHFILTER	IQUANT	1	Ach Filter
IERANGELOWERLIMIT	IQUANT	2	I/E Range Lower Limit
IERANGEMODE	TOGGLE	F	I/E AutoRange
IERANGE	IQUANT	10	I/E Range
POSFEEDENABLE	TOGGLE	F	Positive Feedback IR Comp
POSFEEDRESISTANCE	QUANT	0	Positive Feedback Resistance (ohm)
ACHSELECT	IQUANT	1	Ach Select
CABLEID	IQUANT	14	Cable ID
DCCALDATE	LABEL	18.5.2016	DC Calibration Date
ACCALDATE	LABEL	18.5.2016	AC Calibration Date
THERMOSELECT	IQUANT	1	Thermo Select
FRAMEWORKVERSION	QUANT	7,03	Framework Version
INSTRUMENTVERSION	LABEL	4.15	Instrument Version
COMPLIANCEVOLTAGE	IQUANT	0	Compliance Voltage
CURVE	TABLE	501
	Pt	T	Vf	Im	Vu	Sig	Ach	IERange	Over	Cycle
	#	s	V vs. Ref.	A	V	V	V	#	bits	#
	0	0,2	3,81425E-004	1,46123E-004	0,00000E+000	0,00000E+000	-9,77563E-005	10	...........	0
	5	1,2	-9,60598E-003	1,14724E-004	0,00000E+000	-1,00000E-002	-1,07506E-004	10	...........	0
	10	2,2	-1,95975E-002	7,83425E-005	0,00000E+000	-2,00000E-002	-1,07556E-004	10	...........	0
	15	3,2	-2,96044E-002	5,69551E-005	0,00000E+000	-3,00000E-002	-1,17056E-004	10	...........	0
	20	4,2	-3,95871E-002	4,78101E-005	0,00000E+000	-4,00000E-002	-1,09456E-004	10	...........	0
	25	5,2	-4,95912E-002	2,94518E-005	0,00000E+000	-5,00000E-002	-1,11256E-004	10	...........	0
	30	6,2	-5,95795E-002	2,81991E-007	0,00000E+000	-6,00000E-002	-1,09406E-004	10	...........	0
	35	7,2	-6,95721E-002	-1,15055E-005	0,00000E+000	-7,00000E-002	-1,00856E-004	10	...........	0
	40	8,2	-7,95607E-002	-5,81737E-006	0,00000E+000	-8,00000E-002	-9,94563E-005	10	...........	0
	45	9,2	-8,95543E-002	-1,21053E-005	0,00000E+000	-9,00000E-002	-1,06506E-004	10	...........	0
	50	10,2	-9,95388E-002	-3,55895E-005	0,00000E+000	-1,00000E-001	-1,09056E-004	10	...........	0
	55	11,2	-1,09535E-001	-3,62139E-005	0,00000E+000	-1,10000E-001	-1,04756E-004	10	...........	0
	60	12,2	-1,19525E-001	-2,16726E-005	0,00000E+000	-1,20000E-001	-1,06256E-004	10	...........	0
	65	13,2	-1,29522E-001	-2,33351E-005	0,00000E+000	-1,30000E-001	-1,08906E-004	10	...........	0
	70	14,2	-1,39513E-001	-4,10229E-005	0,00000E+000	-1,40000E-001	-9,97063E-005	10	...........	0
	75	15,2	-1,49510E-001	-3,78433E-005	0,00000E+000	-1,50000E-001	-1,02956E-004	10	...........	0
	80	16,2	-1,59492E-001	-2,31390E-005	0,00000E+000	-1,60000E-001	-1,00406E-004	10	...........	0
	85	17,2	-1,69489E-001	-2,39219E-005	0,00000E+000	-1,70000E-001	-1,10756E-004	10	...........	0
	90	18,2	-1,79476E-001	-3,87756E-005	0,00000E+000	-1,80000E-001	-1,09606E-004	10	...........	0
	95	19,2	-1,89475E-001	-3,52264E-005	0,00000E+000	-1,90000E-001	-1,12606E-004	10	...........	0
	100	20,2	-1,99462E-001	-2,19424E-005	0,00000E+000	-2,00000E-001	-1,07206E-004	10	...........	0
	105	21,2	-2,09456E-001	-2,33346E-005	0,00000E+000	-2,10000E-001	-1,05906E-004	10	...........	0
	110	22,2	-2,19451E-001	-3,60810E-005	0,00000E+000	-2,20000E-001	-1,12256E-004	10	...........	0
	115	23,2	-2,29441E-001	-3,30639E-005	0,00000E+000	-2,30000E-001	-1,00906E-004	10	...........	0
	120	24,2	-2,39432E-001	-2,03496E-005	0,00000E+000	-2,40000E-001	-1,15556E-004	10	...........	0
	125	25,2	-2,49425E-001	-2,27559E-005	0,00000E+000	-2,50000E-001	-1,04956E-004	10	...........	0
	130	26,2	-2,59413E-001	-3,46406E-005	0,00000E+000	-2,60000E-001	-1,12056E-004	10	...........	0
	135	27,2	-2,69408E-001	-3,21085E-005	0,00000E+000	-2,70000E-001	-1,06556E-004	10	...........	0
	140	28,2	-2,79396E-001	-2,12238E-005	0,00000E+000	-2,80000E-001	-1,05656E-004	10	...........	0
	145	29,2	-2,89378E-001	-2,35347E-005	0,00000E+000	-2,90000E-001	-1,05906E-004	10	...........	0
	150	30,2	-2,99370E-001	-3,57625E-005	0,00000E+000	-3,00000E-001	-1,04656E-004	10	...........	0
	155	31,2	-3,09323E-001	-3,49797E-005	0,00000E+000	-3,10000E-001	-1,08106E-004	10	...........	0
	160	32,2	-3,19318E-001	-2,37855E-005	0,00000E+000	-3,20000E-001	-1,03006E-004	10	...........	0
	165	33,2	-3,29314E-001	-2,65107E-005	0,00000E+000	-3,30000E-001	-1,00056E-004	10	...........	0
	170	34,2	-3,39292E-001	-4,01893E-005	0,00000E+000	-3,40000E-001	-1,11106E-004	10	...........	0
	175	35,2	-3,49319E-001	-4,02265E-005	0,00000E+000	-3,50000E-001	-9,62063E-005	10	...........	0
	180	36,2	-3,59277E-001	-2,79330E-005	0,00000E+000	-3,60000E-001	-9,53063E-005	10	...........	0
	185	37,2	-3,69286E-001	-3,08262E-005	0,00000E+000	-3,70000E-001	-1,06756E-004	10	...........	0
	190	38,2	-3,79291E-001	-4,79241E-005	0,00000E+000	-3,80000E-001	-1,04356E-004	10	...........	0
	195	39,2	-3,89269E-001	-4,87376E-005	0,00000E+000	-3,90000E-001	-1,10156E-004	10	...........	0
	200	40,2	-3,99286E-001	-3,48137E-005	0,00000E+000	-4,00000E-001	-1,16656E-004	10	...........	0
	205	41,2	-4,09269E-001	-3,74576E-005	0,00000E+000	-4,10000E-001	-1,11056E-004	10	...........	0
	210	42,2	-4,19247E-001	-5,90572E-005	0,00000E+000	-4,20000E-001	-1,00756E-004	10	...........	0
	215	43,2	-4,29253E-001	-5,99890E-005	0,00000E+000	-4,30000E-001	-1,04956E-004	10	...........	0
	220	44,2	-4,39235E-001	-4,25224E-005	0,00000E+000	-4,40000E-001	-9,53063E-005	10	...........	0
	225	45,2	-4,49244E-001	-4,87953E-005	0,00000E+000	-4,50000E-001	-1,06906E-004	10	...........	0
	230	46,2	-4,59233E-001	-7,20503E-005	0,00000E+000	-4,60000E-001	-1,02906E-004	10	...........	0
	235	47,2	-4,69228E-001	-7,44039E-005	0,00000E+000	-4,70000E-001	-1,02106E-004	10	...........	0
	240	48,2	-4,79225E-001	-5,20872E-005	0,00000E+000	-4,80000E-001	-1,13106E-004	10	...........	0
	245	49,2	-4,89208E-001	-7,10959E-005	0,00000E+000	-4,90000E-001	-1,14656E-004	10	...........	0
	250	50,2	-4,99225E-001	-8,76237E-005	0,00000E+000	-5,00000E-001	-1,05106E-004	10	...........	0
	255	51,2	-5,09218E-001	-9,10560E-005	0,00000E+000	-5,10000E-001	-1,08006E-004	10	...........	0
[...]
	315	63,2	-6,29117E-001	-1,48171E-004	0,00000E+000	-6,30000E-001	-1,06506E-004	10	...........	0
	320	64,2	-6,39154E-001	-1,16316E-004	0,00000E+000	-6,40000E-001	-1,03506E-004	10	...........	0
	325	65,2	-6,49140E-001	-1,87076E-004	0,00000E+000	-6,50000E-001	-1,03306E-004	10	...........	0
	330	66,2	-6,59100E-001	-1,95979E-004	0,00000E+000	-6,60000E-001	-1,21806E-004	10	...........	0
	335	67,2	-6,69103E-001	-1,68402E-004	0,00000E+000	-6,70000E-001	-1,08056E-004	10	...........	0
	340	68,2	-6,79082E-001	-1,43587E-004	0,00000E+000	-6,80000E-001	-1,07056E-004	10	...........	0
	345	69,2	-6,89084E-001	-2,25960E-004	0,00000E+000	-6,90000E-001	-1,27906E-004	10	...........	0
	350	70,2	-6,99101E-001	-2,36623E-004	0,00000E+000	-7,00000E-001	-1,11606E-004	10	...........	0
	355	71,2	-7,09059E-001	-1,94316E-004	0,00000E+000	-7,10000E-001	-1,24856E-004	10	...........	0
	360	72,2	-7,19039E-001	-1,78173E-004	0,00000E+000	-7,20000E-001	-1,11456E-004	10	...........	0
	365	73,2	-7,29045E-001	-2,68374E-004	0,00000E+000	-7,30000E-001	-1,21606E-004	10	...........	0
	370	74,2	-7,39004E-001	-2,79430E-004	0,00000E+000	-7,40000E-001	-1,18006E-004	10	...........	0
	375	75,2	-7,48989E-001	-2,24449E-004	0,00000E+000	-7,50000E-001	-1,19406E-004	10	...........	0
	380	76,2	-7,58998E-001	-2,08769E-004	0,00000E+000	-7,60000E-001	-1,10706E-004	10	...........	0
	385	77,2	-7,68967E-001	-3,11883E-004	0,00000E+000	-7,70000E-001	-1,22656E-004	10	...........	0
	390	78,2	-7,78982E-001	-3,23373E-004	0,00000E+000	-7,80000E-001	-1,18256E-004	10	...........	0
	395	79,2	-7,88978E-001	-2,53015E-004	0,00000E+000	-7,90000E-001	-1,13106E-004	10	...........	0
	400	80,2	-7,98962E-001	-2,42382E-004	0,00000E+000	-8,00000E-001	-1,19806E-004	10	...........	0
	405	81,2	-8,08967E-001	-3,59499E-004	0,00000E+000	-8,10000E-001	-1,19606E-004	10	...........	0
	410	82,2	-8,18934E-001	-3,69105E-004	0,00000E+000	-8,20000E-001	-1,19506E-004	10	...........	0
	415	83,2	-8,28875E-001	-2,87817E-004	0,00000E+000	-8,30000E-001	-1,18756E-004	10	...........	0
	420	84,2	-8,38927E-001	-2,90617E-004	0,00000E+000	-8,40000E-001	-1,12656E-004	10	...........	0
	425	85,2	-8,48901E-001	-4,11551E-004	0,00000E+000	-8,50000E-001	-1,01756E-004	10	...........	0
	430	86,2	-8,58934E-001	-4,19526E-004	0,00000E+000	-8,60000E-001	-1,04056E-004	10	...........	0
	435	87,2	-8,68893E-001	-3,39042E-004	0,00000E+000	-8,70000E-001	-1,17256E-004	10	...........	0
	440	88,2	-8,78885E-001	-3,56153E-004	0,00000E+000	-8,80000E-001	-1,14656E-004	10	...........	0
	445	89,2	-8,88890E-001	-4,69521E-004	0,00000E+000	-8,90000E-001	-1,15456E-004	10	...........	0
	450	90,2	-8,98869E-001	-4,77625E-004	0,00000E+000	-9,00000E-001	-1,04556E-004	10	...........	0
	455	91,2	-9,08899E-001	-4,16213E-004	0,00000E+000	-9,10000E-001	-1,11756E-004	10	...........	0
	460	92,2	-9,18879E-001	-4,45208E-004	0,00000E+000	-9,20000E-001	-1,04756E-004	10	...........	0
	465	93,2	-9,28832E-001	-5,43463E-004	0,00000E+000	-9,30000E-001	-1,14406E-004	10	...........	0
	470	94,2	-9,38847E-001	-5,54171E-004	0,00000E+000	-9,40000E-001	-1,11006E-004	10	...........	0
	475	95,2	-9,48823E-001	-5,17412E-004	0,00000E+000	-9,50000E-001	-1,10456E-004	10	...........	0
	480	96,2	-9,58834E-001	-5,54522E-004	0,00000E+000	-9,60000E-001	-1,08756E-004	10	...........	0
	485	97,2	-9,68828E-001	-6,27661E-004	0,00000E+000	-9,70000E-001	-1,20706E-004	10	...........	0
	490	98,2	-9,78815E-001	-6,49812E-004	0,00000E+000	-9,80000E-001	-1,07456E-004	10	...........	0
	495	99,2	-9,88830E-001	-6,33152E-004	0,00000E+000	-9,90000E-001	-1,06656E-004	10	...........	0
	500	100,2	-9,98815E-001	-6,65653E-004	0,00000E+000	-1,00000E+000	-1,02006E-004	10	...........	0

File: LSV_CU2O 002_0 TO -1V_light on.DTA
EXPLAIN
TAG	LSV
TITLE	LABEL	Linear Sweep Voltammetry	Test &Identifier
DATE	LABEL	6.4.2017	Date
TIME	LABEL	11:21:43	Time
NOTES	NOTES	2	&Notes...
	solar sim

PSTAT	PSTAT	REF3000-31107	Potentiostat
VINIT	POTEN	0,00000E+000	F	&Initial E (V)
VFINAL	POTEN	-1,00000E+000	F	&Final E (V)
SCANRATE	QUANT	9,99998E+000	&Scan Rate (mV/s)
STEPSIZE	QUANT	2,00000E+000	St&ep Size (mV)
IMODE	SELECTOR	1	I/E Range &Mode
IRANGE	QUANT	1,00000E+001	&Max Current (mA)
AREA	QUANT	1,00000E+000	Electrode &Area (cm^2)
ELECTRODETYPE	SELECTOR	1	Electrode Type
STRIPPING	TOGGLE	F	Used for Stripping
POLARITY	TOGGLE	F	Signal Polarity
CONDIT	TWOPARAM	F	3,00000E+001	0,00000E+000	Conditionin&g	Time(s)	E(V)
DELAY	TWOPARAM	F	3,00000E+001	0,00000E+000	Init. De&lay	Time(s)	Stab.(mV/s)
EQDELAY	QUANT	5,00000E+000	Equil. &Time (s)
IRCOMP	SELECTOR	0	IRCom&p
PFCOR	QUANT	5,00000E+001	PF Corr. (ohm)
SAMPLINGMODE	SELECTOR	1	Sampling &Mode
EOC	QUANT	0	Open Circuit (V)
PSTATMODEL	IQUANT	5	Pstat Model
PSTATSECTION	LABEL	REF3000-31107	Pstat Section
PSTATSERIALNO	LABEL	31107	Pstat Serial Number
CTRLMODE	IQUANT	1	Control Mode
ELECTROMETER	IQUANT	0	RE=0 or CS=1
IESTAB	IQUANT	2	I/E Stability
CASPEED	IQUANT	4	Control Amp Speed
CONVENTION	IQUANT	1	Current Convention
ICHRANGE	IQUANT	2	Ich Range
ICHRANGEMODE	TOGGLE	F	Ich Auto Range
ICHOFFSETENABLE	TOGGLE	F	Ich Offset Enable
ICHOFFSET	QUANT	0	Ich Offset (V)
ICHFILTER	IQUANT	3	Ich Filter
VCHRANGE	IQUANT	2	Vch Range
VCHRANGEMODE	TOGGLE	T	Vch Auto Range
VCHOFFSETENABLE	TOGGLE	F	Vch Offset Enable
VCHOFFSET	QUANT	0	Vch Offset (V)
VCHFILTER	IQUANT	3	Vch Filter
ACHRANGE	IQUANT	2	Ach Range
ACHOFFSETENABLE	TOGGLE	F	Ach Offset Enable
ACHOFFSET	QUANT	0	Ach Offset (V)
ACHFILTER	IQUANT	1	Ach Filter
IERANGELOWERLIMIT	IQUANT	2	I/E Range Lower Limit
IERANGEMODE	TOGGLE	F	I/E AutoRange
IERANGE	IQUANT	10	I/E Range
POSFEEDENABLE	TOGGLE	F	Positive Feedback IR Comp
POSFEEDRESISTANCE	QUANT	0	Positive Feedback Resistance (ohm)
ACHSELECT	IQUANT	1	Ach Select
CABLEID	IQUANT	14	Cable ID
DCCALDATE	LABEL	18.5.2016	DC Calibration Date
ACCALDATE	LABEL	18.5.2016	AC Calibration Date
THERMOSELECT	IQUANT	1	Thermo Select
FRAMEWORKVERSION	QUANT	7,03	Framework Version
INSTRUMENTVERSION	LABEL	4.15	Instrument Version
COMPLIANCEVOLTAGE	IQUANT	0	Compliance Voltage
CURVE	TABLE	501
	Pt	T	Vf	Im	Vu	Sig	Ach	IERange	Over	Cycle
	#	s	V vs. Ref.	A	V	V	V	#	bits	#
	0	0,2	4,17125E-004	5,26527E-005	0,00000E+000	0,00000E+000	-2,49656E-004	10	...........	0
	5	1,2	-9,57688E-003	3,54534E-005	0,00000E+000	-1,00000E-002	-2,56706E-004	10	...........	0
	10	2,2	-1,95691E-002	2,37216E-005	0,00000E+000	-2,00000E-002	-2,62056E-004	10	...........	0
	15	3,2	-2,95742E-002	1,52295E-005	0,00000E+000	-3,00000E-002	-2,71056E-004	10	...........	0
	20	4,2	-3,95655E-002	4,55335E-006	0,00000E+000	-4,00000E-002	-2,57256E-004	10	...........	0
	25	5,2	-4,95557E-002	-9,94352E-007	0,00000E+000	-5,00000E-002	-2,71106E-004	10	...........	0
	30	6,2	-5,95562E-002	-9,07618E-006	0,00000E+000	-6,00000E-002	-2,52306E-004	10	...........	0
	35	7,2	-6,95456E-002	-1,34509E-005	0,00000E+000	-7,00000E-002	-2,64506E-004	10	...........	0
	40	8,2	-7,95406E-002	-1,62468E-005	0,00000E+000	-8,00000E-002	-2,71906E-004	10	...........	0
	45	9,2	-8,95280E-002	-1,67944E-005	0,00000E+000	-9,00000E-002	-2,73106E-004	10	...........	0
	50	10,2	-9,95103E-002	-1,73892E-005	0,00000E+000	-1,00000E-001	-2,68306E-004	10	...........	0
	55	11,2	-1,09512E-001	-1,94805E-005	0,00000E+000	-1,10000E-001	-2,61706E-004	10	...........	0
	60	12,2	-1,19505E-001	-2,00658E-005	0,00000E+000	-1,20000E-001	-2,57806E-004	10	...........	0
	65	13,2	-1,29496E-001	-2,04504E-005	0,00000E+000	-1,30000E-001	-2,60656E-004	10	...........	0
	70	14,2	-1,39485E-001	-2,01395E-005	0,00000E+000	-1,40000E-001	-2,63256E-004	10	...........	0
	75	15,2	-1,49480E-001	-2,00452E-005	0,00000E+000	-1,50000E-001	-2,61906E-004	10	...........	0
	80	16,2	-1,59467E-001	-2,05076E-005	0,00000E+000	-1,60000E-001	-2,62956E-004	10	...........	0
	85	17,2	-1,69469E-001	-2,05226E-005	0,00000E+000	-1,70000E-001	-2,61306E-004	10	...........	0
	90	18,2	-1,79455E-001	-2,04499E-005	0,00000E+000	-1,80000E-001	-2,59406E-004	10	...........	0
	95	19,2	-1,89447E-001	-2,05728E-005	0,00000E+000	-1,90000E-001	-2,60506E-004	10	...........	0
	100	20,2	-1,99439E-001	-2,14459E-005	0,00000E+000	-2,00000E-001	-2,65156E-004	10	...........	0
	105	21,2	-2,09434E-001	-2,20999E-005	0,00000E+000	-2,10000E-001	-2,68706E-004	10	...........	0
	110	22,2	-2,19421E-001	-2,24359E-005	0,00000E+000	-2,20000E-001	-2,63306E-004	10	...........	0
	115	23,2	-2,29416E-001	-2,33817E-005	0,00000E+000	-2,30000E-001	-2,61106E-004	10	...........	0
	120	24,2	-2,39406E-001	-2,45473E-005	0,00000E+000	-2,40000E-001	-2,60956E-004	10	...........	0
	125	25,2	-2,49399E-001	-2,59741E-005	0,00000E+000	-2,50000E-001	-2,55456E-004	10	...........	0
	130	26,2	-2,59388E-001	-2,66055E-005	0,00000E+000	-2,60000E-001	-2,56956E-004	10	...........	0
	135	27,2	-2,69362E-001	-2,80924E-005	0,00000E+000	-2,70000E-001	-2,62806E-004	10	...........	0
	140	28,2	-2,79354E-001	-2,93703E-005	0,00000E+000	-2,80000E-001	-2,64856E-004	10	...........	0
	145	29,2	-2,89319E-001	-3,10012E-005	0,00000E+000	-2,90000E-001	-2,73456E-004	10	...........	0
	150	30,2	-2,99327E-001	-3,24305E-005	0,00000E+000	-3,00000E-001	-2,76556E-004	10	...........	0
	155	31,2	-3,09284E-001	-3,32194E-005	0,00000E+000	-3,10000E-001	-2,74806E-004	10	...........	0
	160	32,2	-3,19297E-001	-3,67585E-005	0,00000E+000	-3,20000E-001	-2,62806E-004	10	...........	0
	165	33,2	-3,29296E-001	-3,88874E-005	0,00000E+000	-3,30000E-001	-2,63356E-004	10	...........	0
	170	34,2	-3,39214E-001	-4,16202E-005	0,00000E+000	-3,40000E-001	-2,58456E-004	10	...........	0
	175	35,2	-3,49286E-001	-4,38935E-005	0,00000E+000	-3,50000E-001	-2,59606E-004	10	...........	0
	180	36,2	-3,59273E-001	-4,64733E-005	0,00000E+000	-3,60000E-001	-2,67756E-004	10	...........	0
	185	37,2	-3,69262E-001	-4,86604E-005	0,00000E+000	-3,70000E-001	-2,71606E-004	10	...........	0
	190	38,2	-3,79269E-001	-5,16514E-005	0,00000E+000	-3,80000E-001	-2,64906E-004	10	...........	0
	195	39,2	-3,89262E-001	-5,48911E-005	0,00000E+000	-3,90000E-001	-2,65806E-004	10	...........	0
	200	40,2	-3,99253E-001	-5,76364E-005	0,00000E+000	-4,00000E-001	-2,60656E-004	10	...........	0
	205	41,2	-4,09266E-001	-6,03621E-005	0,00000E+000	-4,10000E-001	-2,65506E-004	10	...........	0
	210	42,2	-4,18979E-001	-6,32076E-005	0,00000E+000	-4,20000E-001	-2,72856E-004	10	...........	0
	215	43,2	-4,29207E-001	-6,50151E-005	0,00000E+000	-4,30000E-001	-2,72956E-004	10	...........	0
	220	44,2	-4,39206E-001	-6,89228E-005	0,00000E+000	-4,40000E-001	-2,66006E-004	10	...........	0
	225	45,2	-4,49207E-001	-7,23141E-005	0,00000E+000	-4,50000E-001	-2,62606E-004	10	...........	0
	230	46,2	-4,59115E-001	-7,62544E-005	0,00000E+000	-4,60000E-001	-2,64506E-004	10	...........	0
	235	47,2	-4,69144E-001	-8,02033E-005	0,00000E+000	-4,70000E-001	-2,78306E-004	10	...........	0
	240	48,2	-4,79188E-001	-8,50720E-005	0,00000E+000	-4,80000E-001	-2,69656E-004	10	...........	0
	245	49,2	-4,89190E-001	-9,05871E-005	0,00000E+000	-4,90000E-001	-2,56956E-004	10	...........	0
	250	50,2	-4,99162E-001	-9,66548E-005	0,00000E+000	-5,00000E-001	-2,79806E-004	10	...........	0
	255	51,2	-5,09165E-001	-1,03830E-004	0,00000E+000	-5,10000E-001	-2,64556E-004	10	...........	0
[...]
	315	63,2	-6,29054E-001	-2,40914E-004	0,00000E+000	-6,30000E-001	-2,91456E-004	10	...........	0
	320	64,2	-6,39045E-001	-2,55435E-004	0,00000E+000	-6,40000E-001	-2,84956E-004	10	...........	0
	325	65,2	-6,49040E-001	-2,69364E-004	0,00000E+000	-6,50000E-001	-2,79906E-004	10	...........	0
	330	66,2	-6,58990E-001	-2,83758E-004	0,00000E+000	-6,60000E-001	-2,74106E-004	10	...........	0
	335	67,2	-6,69027E-001	-2,97910E-004	0,00000E+000	-6,70000E-001	-2,74006E-004	10	...........	0
	340	68,2	-6,79030E-001	-3,12634E-004	0,00000E+000	-6,80000E-001	-2,78456E-004	10	...........	0
	345	69,2	-6,89032E-001	-3,26801E-004	0,00000E+000	-6,90000E-001	-2,79656E-004	10	...........	0
	350	70,2	-6,98954E-001	-3,42206E-004	0,00000E+000	-7,00000E-001	-2,78806E-004	10	...........	0
	355	71,2	-7,09015E-001	-3,55546E-004	0,00000E+000	-7,10000E-001	-2,81106E-004	10	...........	0
	360	72,2	-7,18954E-001	-3,69949E-004	0,00000E+000	-7,20000E-001	-2,84456E-004	10	...........	0
	365	73,2	-7,28978E-001	-3,84860E-004	0,00000E+000	-7,30000E-001	-2,83106E-004	10	...........	0
	370	74,2	-7,38941E-001	-3,99375E-004	0,00000E+000	-7,40000E-001	-2,75106E-004	10	...........	0
	375	75,2	-7,48946E-001	-4,13165E-004	0,00000E+000	-7,50000E-001	-2,64206E-004	10	...........	0
	380	76,2	-7,58959E-001	-4,27109E-004	0,00000E+000	-7,60000E-001	-2,61006E-004	10	...........	0
	385	77,2	-7,68952E-001	-4,41263E-004	0,00000E+000	-7,70000E-001	-2,66006E-004	10	...........	0
	390	78,2	-7,78923E-001	-4,55640E-004	0,00000E+000	-7,80000E-001	-2,70356E-004	10	...........	0
	395	79,2	-7,88935E-001	-4,66271E-004	0,00000E+000	-7,90000E-001	-2,84256E-004	10	...........	0
	400	80,2	-7,98908E-001	-4,80992E-004	0,00000E+000	-8,00000E-001	-2,84956E-004	10	...........	0
	405	81,2	-8,08930E-001	-4,93605E-004	0,00000E+000	-8,10000E-001	-2,67856E-004	10	...........	0
	410	82,2	-8,18921E-001	-5,05697E-004	0,00000E+000	-8,20000E-001	-2,72256E-004	10	...........	0
	415	83,2	-8,28607E-001	-5,15916E-004	0,00000E+000	-8,30000E-001	-2,78006E-004	10	...........	0
	420	84,2	-8,38884E-001	-5,30206E-004	0,00000E+000	-8,40000E-001	-2,87356E-004	10	...........	0
	425	85,2	-8,48880E-001	-5,42519E-004	0,00000E+000	-8,50000E-001	-2,76006E-004	10	...........	0
	430	86,2	-8,58881E-001	-5,54253E-004	0,00000E+000	-8,60000E-001	-2,76606E-004	10	...........	0
	435	87,2	-8,68837E-001	-5,65869E-004	0,00000E+000	-8,70000E-001	-2,76006E-004	10	...........	0
	440	88,2	-8,78818E-001	-5,78804E-004	0,00000E+000	-8,80000E-001	-2,84906E-004	10	...........	0
	445	89,2	-8,88876E-001	-5,88824E-004	0,00000E+000	-8,90000E-001	-2,72206E-004	10	...........	0
	450	90,2	-8,98862E-001	-6,02072E-004	0,00000E+000	-9,00000E-001	-2,74456E-004	10	...........	0
	455	91,2	-9,08853E-001	-6,13513E-004	0,00000E+000	-9,10000E-001	-2,79306E-004	10	...........	0
	460	92,2	-9,18843E-001	-6,23751E-004	0,00000E+000	-9,20000E-001	-2,75856E-004	10	...........	0
	465	93,2	-9,28823E-001	-6,36594E-004	0,00000E+000	-9,30000E-001	-2,65206E-004	10	...........	0
	470	94,2	-9,38817E-001	-6,47759E-004	0,00000E+000	-9,40000E-001	-2,74906E-004	10	...........	0
	475	95,2	-9,48735E-001	-6,58561E-004	0,00000E+000	-9,50000E-001	-2,87306E-004	10	...........	0
	480	96,2	-9,58807E-001	-6,72793E-004	0,00000E+000	-9,60000E-001	-2,66956E-004	10	...........	0
	485	97,2	-9,68812E-001	-6,85595E-004	0,00000E+000	-9,70000E-001	-2,64356E-004	10	...........	0
	490	98,2	-9,78795E-001	-6,97047E-004	0,00000E+000	-9,80000E-001	-2,69706E-004	10	...........	0
	495	99,2	-9,88768E-001	-7,06727E-004	0,00000E+000	-9,90000E-001	-2,84456E-004	10	...........	0
	500	100,2	-9,98761E-001	-7,21436E-004	0,00000E+000	-1,00000E+000	-2,84106E-004	10	...........	0