Folder: Master2018/Lab/Characterization/Linear_Sweep_Voltammetry/002

File: LSV_Cu2O 002_0 to -0,6V_dark.DTA
EXPLAIN
TAG	LSV
TITLE	LABEL	Linear Sweep Voltammetry	Test &Identifier
DATE	LABEL	6.4.2017	Date
TIME	LABEL	11:09:34	Time
NOTES	NOTES	2	&Notes...
	solar sim

PSTAT	PSTAT	REF3000-31107	Potentiostat
VINIT	POTEN	0,00000E+000	F	&Initial E (V)
VFINAL	POTEN	-6,00000E-001	F	&Final E (V)
SCANRATE	QUANT	9,99998E+000	&Scan Rate (mV/s)
STEPSIZE	QUANT	2,00000E+000	St&ep Size (mV)
IMODE	SELECTOR	1	I/E Range &Mode
IRANGE	QUANT	1,00000E+001	&Max Current (mA)
AREA	QUANT	1,00000E+000	Electrode &Area (cm^2)
ELECTRODETYPE	SELECTOR	1	Electrode Type
STRIPPING	TOGGLE	F	Used for Stripping
POLARITY	TOGGLE	F	Signal Polarity
CONDIT	TWOPARAM	F	3,00000E+001	0,00000E+000	Conditionin&g	Time(s)	E(V)
DELAY	TWOPARAM	F	3,00000E+001	0,00000E+000	Init. De&lay	Time(s)	Stab.(mV/s)
EQDELAY	QUANT	5,00000E+000	Equil. &Time (s)
IRCOMP	SELECTOR	0	IRCom&p
PFCOR	QUANT	5,00000E+001	PF Corr. (ohm)
SAMPLINGMODE	SELECTOR	1	Sampling &Mode
EOC	QUANT	0	Open Circuit (V)
PSTATMODEL	IQUANT	5	Pstat Model
PSTATSECTION	LABEL	REF3000-31107	Pstat Section
PSTATSERIALNO	LABEL	31107	Pstat Serial Number
CTRLMODE	IQUANT	1	Control Mode
ELECTROMETER	IQUANT	0	RE=0 or CS=1
IESTAB	IQUANT	2	I/E Stability
CASPEED	IQUANT	4	Control Amp Speed
CONVENTION	IQUANT	1	Current Convention
ICHRANGE	IQUANT	2	Ich Range
ICHRANGEMODE	TOGGLE	F	Ich Auto Range
ICHOFFSETENABLE	TOGGLE	F	Ich Offset Enable
ICHOFFSET	QUANT	0	Ich Offset (V)
ICHFILTER	IQUANT	3	Ich Filter
VCHRANGE	IQUANT	2	Vch Range
VCHRANGEMODE	TOGGLE	T	Vch Auto Range
VCHOFFSETENABLE	TOGGLE	F	Vch Offset Enable
VCHOFFSET	QUANT	0	Vch Offset (V)
VCHFILTER	IQUANT	3	Vch Filter
ACHRANGE	IQUANT	2	Ach Range
ACHOFFSETENABLE	TOGGLE	F	Ach Offset Enable
ACHOFFSET	QUANT	0	Ach Offset (V)
ACHFILTER	IQUANT	1	Ach Filter
IERANGELOWERLIMIT	IQUANT	2	I/E Range Lower Limit
IERANGEMODE	TOGGLE	F	I/E AutoRange
IERANGE	IQUANT	10	I/E Range
POSFEEDENABLE	TOGGLE	F	Positive Feedback IR Comp
POSFEEDRESISTANCE	QUANT	0	Positive Feedback Resistance (ohm)
ACHSELECT	IQUANT	1	Ach Select
CABLEID	IQUANT	14	Cable ID
DCCALDATE	LABEL	18.5.2016	DC Calibration Date
ACCALDATE	LABEL	18.5.2016	AC Calibration Date
THERMOSELECT	IQUANT	1	Thermo Select
FRAMEWORKVERSION	QUANT	7,03	Framework Version
INSTRUMENTVERSION	LABEL	4.15	Instrument Version
COMPLIANCEVOLTAGE	IQUANT	0	Compliance Voltage
CURVE	TABLE	301
	Pt	T	Vf	Im	Vu	Sig	Ach	IERange	Over	Cycle
	#	s	V vs. Ref.	A	V	V	V	#	bits	#
	0	0,2	3,89575E-004	1,77426E-005	0,00000E+000	-2,98023E-008	-3,69556E-004	10	...........	0
	3	0,8	-5,62849E-003	1,13568E-005	0,00000E+000	-6,00001E-003	-3,70906E-004	10	...........	0
	6	1,4	-1,16217E-002	6,83773E-006	0,00000E+000	-1,20000E-002	-3,60706E-004	10	...........	0
	9	2	-1,76177E-002	3,50620E-006	0,00000E+000	-1,80000E-002	-3,63206E-004	10	...........	0
	12	2,6	-2,36110E-002	5,38764E-007	0,00000E+000	-2,40000E-002	-3,71606E-004	10	...........	0
	15	3,2	-2,96207E-002	-1,48734E-006	0,00000E+000	-3,00000E-002	-3,67356E-004	10	...........	0
	18	3,8	-3,56159E-002	-3,47632E-006	0,00000E+000	-3,60000E-002	-3,60456E-004	10	...........	0
	21	4,4	-4,16112E-002	-4,94926E-006	0,00000E+000	-4,20000E-002	-3,60606E-004	10	...........	0
	24	5	-4,76034E-002	-5,87755E-006	0,00000E+000	-4,80000E-002	-3,61406E-004	10	...........	0
	27	5,6	-5,35996E-002	-6,65690E-006	0,00000E+000	-5,40000E-002	-3,54606E-004	10	...........	0
	30	6,2	-5,95967E-002	-7,39763E-006	0,00000E+000	-6,00000E-002	-3,47756E-004	10	...........	0
	33	6,8	-6,55917E-002	-8,30586E-006	0,00000E+000	-6,60000E-002	-3,54706E-004	10	...........	0
	36	7,4	-7,15857E-002	-8,19252E-006	0,00000E+000	-7,20000E-002	-3,52056E-004	10	...........	0
	39	8	-7,75846E-002	-8,71610E-006	0,00000E+000	-7,80000E-002	-3,52956E-004	10	...........	0
	42	8,6	-8,35785E-002	-9,12533E-006	0,00000E+000	-8,40000E-002	-3,53806E-004	10	...........	0
	45	9,2	-8,95739E-002	-9,58672E-006	0,00000E+000	-9,00000E-002	-3,63656E-004	10	...........	0
	48	9,8	-9,55747E-002	-9,51751E-006	0,00000E+000	-9,60000E-002	-3,55656E-004	10	...........	0
	51	10,4	-1,01577E-001	-9,66696E-006	0,00000E+000	-1,02000E-001	-3,51006E-004	10	...........	0
	54	11	-1,07571E-001	-9,95784E-006	0,00000E+000	-1,08000E-001	-3,56506E-004	10	...........	0
	57	11,6	-1,13559E-001	-1,00581E-005	0,00000E+000	-1,14000E-001	-3,51406E-004	10	...........	0
	60	12,2	-1,19562E-001	-9,83948E-006	0,00000E+000	-1,20000E-001	-3,48456E-004	10	...........	0
	63	12,8	-1,25554E-001	-1,00596E-005	0,00000E+000	-1,26000E-001	-3,54706E-004	10	...........	0
	66	13,4	-1,31549E-001	-1,03139E-005	0,00000E+000	-1,32000E-001	-3,53806E-004	10	...........	0
	69	14	-1,37547E-001	-1,01554E-005	0,00000E+000	-1,38000E-001	-3,48156E-004	10	...........	0
	72	14,6	-1,43541E-001	-1,07261E-005	0,00000E+000	-1,44000E-001	-3,49056E-004	10	...........	0
	75	15,2	-1,49535E-001	-1,11931E-005	0,00000E+000	-1,50000E-001	-3,57706E-004	10	...........	0
	78	15,8	-1,55531E-001	-1,14057E-005	0,00000E+000	-1,56000E-001	-3,60106E-004	10	...........	0
	81	16,4	-1,61527E-001	-1,12462E-005	0,00000E+000	-1,62000E-001	-3,57356E-004	10	...........	0
	84	17	-1,67528E-001	-1,16003E-005	0,00000E+000	-1,68000E-001	-3,58856E-004	10	...........	0
	87	17,6	-1,73525E-001	-1,19518E-005	0,00000E+000	-1,74000E-001	-3,55206E-004	10	...........	0
	90	18,2	-1,79515E-001	-1,24870E-005	0,00000E+000	-1,80000E-001	-3,60206E-004	10	...........	0
	93	18,8	-1,85512E-001	-1,29117E-005	0,00000E+000	-1,86000E-001	-3,61206E-004	10	...........	0
	96	19,4	-1,91504E-001	-1,36063E-005	0,00000E+000	-1,92000E-001	-3,59006E-004	10	...........	0
	99	20	-1,97498E-001	-1,38902E-005	0,00000E+000	-1,98000E-001	-3,66406E-004	10	...........	0
	102	20,6	-2,03498E-001	-1,42142E-005	0,00000E+000	-2,04000E-001	-3,60056E-004	10	...........	0
	105	21,2	-2,09493E-001	-1,49900E-005	0,00000E+000	-2,10000E-001	-3,62756E-004	10	...........	0
	108	21,8	-2,15485E-001	-1,57779E-005	0,00000E+000	-2,16000E-001	-3,61406E-004	10	...........	0
	111	22,4	-2,21481E-001	-1,62508E-005	0,00000E+000	-2,22000E-001	-3,49956E-004	10	...........	0
	114	23	-2,27474E-001	-1,67809E-005	0,00000E+000	-2,28000E-001	-3,55656E-004	10	...........	0
	117	23,6	-2,33475E-001	-1,77648E-005	0,00000E+000	-2,34000E-001	-3,57656E-004	10	...........	0
	120	24,2	-2,39466E-001	-1,84735E-005	0,00000E+000	-2,40000E-001	-3,57956E-004	10	...........	0
	123	24,8	-2,45466E-001	-1,92814E-005	0,00000E+000	-2,46000E-001	-3,50206E-004	10	...........	0
	126	25,4	-2,51458E-001	-2,01676E-005	0,00000E+000	-2,52000E-001	-3,52106E-004	10	...........	0
	129	26	-2,57454E-001	-2,13426E-005	0,00000E+000	-2,58000E-001	-3,57706E-004	10	...........	0
	132	26,6	-2,63449E-001	-2,21962E-005	0,00000E+000	-2,64000E-001	-3,46006E-004	10	...........	0
	135	27,2	-2,69434E-001	-2,34971E-005	0,00000E+000	-2,70000E-001	-3,46006E-004	10	...........	0
	138	27,8	-2,75412E-001	-2,48116E-005	0,00000E+000	-2,76000E-001	-3,45606E-004	10	...........	0
	141	28,4	-2,81420E-001	-2,55974E-005	0,00000E+000	-2,82000E-001	-3,42856E-004	10	...........	0
	144	29	-2,87413E-001	-2,65698E-005	0,00000E+000	-2,88000E-001	-3,41306E-004	10	...........	0
	147	29,6	-2,93426E-001	-2,76195E-005	0,00000E+000	-2,94000E-001	-3,44056E-004	10	...........	0
	150	30,2	-2,99398E-001	-2,88076E-005	0,00000E+000	-3,00000E-001	-3,46256E-004	10	...........	0
	153	30,8	-3,05406E-001	-3,00624E-005	0,00000E+000	-3,06000E-001	-3,51856E-004	10	...........	0
[...]
	189	38	-3,77351E-001	-4,49928E-005	0,00000E+000	-3,78000E-001	-3,34356E-004	10	...........	0
	192	38,6	-3,83346E-001	-4,64236E-005	0,00000E+000	-3,84000E-001	-3,37006E-004	10	...........	0
	195	39,2	-3,89334E-001	-4,77140E-005	0,00000E+000	-3,90000E-001	-3,35506E-004	10	...........	0
	198	39,8	-3,95322E-001	-4,95114E-005	0,00000E+000	-3,96000E-001	-3,36006E-004	10	...........	0
	201	40,4	-4,01328E-001	-5,11092E-005	0,00000E+000	-4,02000E-001	-3,42556E-004	10	...........	0
	204	41	-4,07321E-001	-5,23013E-005	0,00000E+000	-4,08000E-001	-3,39656E-004	10	...........	0
	207	41,6	-4,13296E-001	-5,38239E-005	0,00000E+000	-4,14000E-001	-3,41056E-004	10	...........	0
	210	42,2	-4,19261E-001	-5,56810E-005	0,00000E+000	-4,20000E-001	-3,36806E-004	10	...........	0
	213	42,8	-4,25295E-001	-5,78295E-005	0,00000E+000	-4,26000E-001	-3,30006E-004	10	...........	0
	216	43,4	-4,31297E-001	-5,99057E-005	0,00000E+000	-4,32000E-001	-3,34756E-004	10	...........	0
	219	44	-4,37285E-001	-6,18310E-005	0,00000E+000	-4,38000E-001	-3,37756E-004	10	...........	0
	222	44,6	-4,43261E-001	-6,34403E-005	0,00000E+000	-4,44000E-001	-3,34306E-004	10	...........	0
	225	45,2	-4,49282E-001	-6,56816E-005	0,00000E+000	-4,50000E-001	-3,37506E-004	10	...........	0
	228	45,8	-4,55295E-001	-6,76605E-005	0,00000E+000	-4,56000E-001	-3,36656E-004	10	...........	0
	231	46,4	-4,61278E-001	-6,92127E-005	0,00000E+000	-4,62000E-001	-3,33056E-004	10	...........	0
	234	47	-4,67264E-001	-7,17077E-005	0,00000E+000	-4,68000E-001	-3,34856E-004	10	...........	0
	237	47,6	-4,73278E-001	-7,38783E-005	0,00000E+000	-4,74000E-001	-3,30656E-004	10	...........	0
	240	48,2	-4,79286E-001	-7,57554E-005	0,00000E+000	-4,80000E-001	-3,27106E-004	10	...........	0
	243	48,8	-4,85261E-001	-7,80704E-005	0,00000E+000	-4,86000E-001	-3,38756E-004	10	...........	0
	246	49,4	-4,91250E-001	-7,99571E-005	0,00000E+000	-4,92000E-001	-3,39056E-004	10	...........	0
	249	50	-4,97253E-001	-8,23177E-005	0,00000E+000	-4,98000E-001	-3,37006E-004	10	...........	0
	252	50,6	-5,03263E-001	-8,45153E-005	0,00000E+000	-5,04000E-001	-3,38756E-004	10	...........	0
	255	51,2	-5,09254E-001	-8,69667E-005	0,00000E+000	-5,10000E-001	-3,37306E-004	10	...........	0
	258	51,8	-5,15219E-001	-8,96362E-005	0,00000E+000	-5,16000E-001	-3,30806E-004	10	...........	0
	261	52,4	-5,21217E-001	-9,15319E-005	0,00000E+000	-5,22000E-001	-3,27006E-004	10	...........	0
	264	53	-5,27218E-001	-9,36623E-005	0,00000E+000	-5,28000E-001	-3,35656E-004	10	...........	0
	267	53,6	-5,33205E-001	-9,58158E-005	0,00000E+000	-5,34000E-001	-3,38906E-004	10	...........	0
	270	54,2	-5,39215E-001	-9,81353E-005	0,00000E+000	-5,40000E-001	-3,35606E-004	10	...........	0
	273	54,8	-5,45213E-001	-1,00370E-004	0,00000E+000	-5,46000E-001	-3,35306E-004	10	...........	0
	276	55,4	-5,51204E-001	-1,02699E-004	0,00000E+000	-5,52000E-001	-3,34656E-004	10	...........	0
	279	56	-5,57204E-001	-1,04714E-004	0,00000E+000	-5,58000E-001	-3,27806E-004	10	...........	0
	282	56,6	-5,63211E-001	-1,07123E-004	0,00000E+000	-5,64000E-001	-3,22406E-004	10	...........	0
	285	57,2	-5,69200E-001	-1,09422E-004	0,00000E+000	-5,70000E-001	-3,28156E-004	10	...........	0
	288	57,8	-5,75187E-001	-1,11453E-004	0,00000E+000	-5,76000E-001	-3,34556E-004	10	...........	0
	291	58,4	-5,81184E-001	-1,13125E-004	0,00000E+000	-5,82000E-001	-3,31906E-004	10	...........	0
	294	59	-5,87200E-001	-1,14875E-004	0,00000E+000	-5,88000E-001	-3,30056E-004	10	...........	0
	297	59,6	-5,93171E-001	-1,17306E-004	0,00000E+000	-5,94000E-001	-3,33906E-004	10	...........	0
	300	60,2	-5,99149E-001	-1,18703E-004	0,00000E+000	-6,00000E-001	-3,30106E-004	10	...........	0

File: LSV_CU2O 002_0 TO -0,6V_light.DTA
EXPLAIN
TAG	LSV
TITLE	LABEL	Linear Sweep Voltammetry	Test &Identifier
DATE	LABEL	6.4.2017	Date
TIME	LABEL	11:11:00	Time
NOTES	NOTES	2	&Notes...
	solar sim

PSTAT	PSTAT	REF3000-31107	Potentiostat
VINIT	POTEN	0,00000E+000	F	&Initial E (V)
VFINAL	POTEN	-6,00000E-001	F	&Final E (V)
SCANRATE	QUANT	9,99998E+000	&Scan Rate (mV/s)
STEPSIZE	QUANT	2,00000E+000	St&ep Size (mV)
IMODE	SELECTOR	1	I/E Range &Mode
IRANGE	QUANT	1,00000E+001	&Max Current (mA)
AREA	QUANT	1,00000E+000	Electrode &Area (cm^2)
ELECTRODETYPE	SELECTOR	1	Electrode Type
STRIPPING	TOGGLE	F	Used for Stripping
POLARITY	TOGGLE	F	Signal Polarity
CONDIT	TWOPARAM	F	3,00000E+001	0,00000E+000	Conditionin&g	Time(s)	E(V)
DELAY	TWOPARAM	F	3,00000E+001	0,00000E+000	Init. De&lay	Time(s)	Stab.(mV/s)
EQDELAY	QUANT	5,00000E+000	Equil. &Time (s)
IRCOMP	SELECTOR	0	IRCom&p
PFCOR	QUANT	5,00000E+001	PF Corr. (ohm)
SAMPLINGMODE	SELECTOR	1	Sampling &Mode
EOC	QUANT	0	Open Circuit (V)
PSTATMODEL	IQUANT	5	Pstat Model
PSTATSECTION	LABEL	REF3000-31107	Pstat Section
PSTATSERIALNO	LABEL	31107	Pstat Serial Number
CTRLMODE	IQUANT	1	Control Mode
ELECTROMETER	IQUANT	0	RE=0 or CS=1
IESTAB	IQUANT	2	I/E Stability
CASPEED	IQUANT	4	Control Amp Speed
CONVENTION	IQUANT	1	Current Convention
ICHRANGE	IQUANT	2	Ich Range
ICHRANGEMODE	TOGGLE	F	Ich Auto Range
ICHOFFSETENABLE	TOGGLE	F	Ich Offset Enable
ICHOFFSET	QUANT	0	Ich Offset (V)
ICHFILTER	IQUANT	3	Ich Filter
VCHRANGE	IQUANT	2	Vch Range
VCHRANGEMODE	TOGGLE	T	Vch Auto Range
VCHOFFSETENABLE	TOGGLE	F	Vch Offset Enable
VCHOFFSET	QUANT	0	Vch Offset (V)
VCHFILTER	IQUANT	3	Vch Filter
ACHRANGE	IQUANT	2	Ach Range
ACHOFFSETENABLE	TOGGLE	F	Ach Offset Enable
ACHOFFSET	QUANT	0	Ach Offset (V)
ACHFILTER	IQUANT	1	Ach Filter
IERANGELOWERLIMIT	IQUANT	2	I/E Range Lower Limit
IERANGEMODE	TOGGLE	F	I/E AutoRange
IERANGE	IQUANT	10	I/E Range
POSFEEDENABLE	TOGGLE	F	Positive Feedback IR Comp
POSFEEDRESISTANCE	QUANT	0	Positive Feedback Resistance (ohm)
ACHSELECT	IQUANT	1	Ach Select
CABLEID	IQUANT	14	Cable ID
DCCALDATE	LABEL	18.5.2016	DC Calibration Date
ACCALDATE	LABEL	18.5.2016	AC Calibration Date
THERMOSELECT	IQUANT	1	Thermo Select
FRAMEWORKVERSION	QUANT	7,03	Framework Version
INSTRUMENTVERSION	LABEL	4.15	Instrument Version
COMPLIANCEVOLTAGE	IQUANT	0	Compliance Voltage
CURVE	TABLE	301
	Pt	T	Vf	Im	Vu	Sig	Ach	IERange	Over	Cycle
	#	s	V vs. Ref.	A	V	V	V	#	bits	#
	0	0,2	3,77875E-004	3,54178E-005	0,00000E+000	-2,98023E-008	-1,61106E-004	10	...........	0
	3	0,8	-5,64696E-003	2,56163E-005	0,00000E+000	-6,00001E-003	-1,68306E-004	10	...........	0
	6	1,4	-1,16411E-002	1,80901E-005	0,00000E+000	-1,20000E-002	-1,72406E-004	10	...........	0
	9	2	-1,76370E-002	1,12019E-005	0,00000E+000	-1,80000E-002	-1,69956E-004	10	...........	0
	12	2,6	-2,36312E-002	6,71084E-006	0,00000E+000	-2,40000E-002	-1,59606E-004	10	...........	0
	15	3,2	-2,96410E-002	2,87279E-006	0,00000E+000	-3,00000E-002	-1,67606E-004	10	...........	0
	18	3,8	-3,56291E-002	6,54384E-006	0,00000E+000	-3,60000E-002	-1,63456E-004	10	...........	0
	21	4,4	-4,16216E-002	1,39735E-006	0,00000E+000	-4,20000E-002	-1,67006E-004	10	...........	0
	24	5	-4,76223E-002	-3,36950E-006	0,00000E+000	-4,80000E-002	-1,75756E-004	10	...........	0
	27	5,6	-5,36174E-002	-5,50242E-006	0,00000E+000	-5,40000E-002	-1,67656E-004	10	...........	0
	30	6,2	-5,96162E-002	-7,81940E-006	0,00000E+000	-6,00000E-002	-1,57806E-004	10	...........	0
	33	6,8	-6,56160E-002	-1,01228E-005	0,00000E+000	-6,60000E-002	-1,63906E-004	10	...........	0
	36	7,4	-7,16081E-002	-1,19162E-005	0,00000E+000	-7,20000E-002	-1,67956E-004	10	...........	0
	39	8	-7,76062E-002	-1,31189E-005	0,00000E+000	-7,80000E-002	-1,64106E-004	10	...........	0
	42	8,6	-8,35969E-002	-1,38470E-005	0,00000E+000	-8,40000E-002	-1,70956E-004	10	...........	0
	45	9,2	-8,95972E-002	-1,49288E-005	0,00000E+000	-9,00000E-002	-1,77406E-004	10	...........	0
	48	9,8	-9,55930E-002	-1,61550E-005	0,00000E+000	-9,60000E-002	-1,69656E-004	10	...........	0
	51	10,4	-1,01585E-001	-1,73541E-005	0,00000E+000	-1,02000E-001	-1,67456E-004	10	...........	0
	54	11	-1,07584E-001	-1,83526E-005	0,00000E+000	-1,08000E-001	-1,76606E-004	10	...........	0
	57	11,6	-1,13579E-001	-1,90798E-005	0,00000E+000	-1,14000E-001	-1,67656E-004	10	...........	0
	60	12,2	-1,19575E-001	-1,95623E-005	0,00000E+000	-1,20000E-001	-1,68056E-004	10	...........	0
	63	12,8	-1,25566E-001	-2,03963E-005	0,00000E+000	-1,26000E-001	-1,73556E-004	10	...........	0
	66	13,4	-1,31557E-001	-2,10492E-005	0,00000E+000	-1,32000E-001	-1,61156E-004	10	...........	0
	69	14	-1,37559E-001	-2,15156E-005	0,00000E+000	-1,38000E-001	-1,71406E-004	10	...........	0
	72	14,6	-1,43552E-001	-2,20126E-005	0,00000E+000	-1,44000E-001	-1,64156E-004	10	...........	0
	75	15,2	-1,49546E-001	-2,27358E-005	0,00000E+000	-1,50000E-001	-1,72706E-004	10	...........	0
	78	15,8	-1,55545E-001	-2,32920E-005	0,00000E+000	-1,56000E-001	-1,70656E-004	10	...........	0
	81	16,4	-1,61542E-001	-2,37534E-005	0,00000E+000	-1,62000E-001	-1,62556E-004	10	...........	0
	84	17	-1,67539E-001	-2,44525E-005	0,00000E+000	-1,68000E-001	-1,58456E-004	10	...........	0
	87	17,6	-1,73537E-001	-2,50137E-005	0,00000E+000	-1,74000E-001	-1,55856E-004	10	...........	0
	90	18,2	-1,79534E-001	-2,56461E-005	0,00000E+000	-1,80000E-001	-1,56906E-004	10	...........	0
	93	18,8	-1,85531E-001	-2,63707E-005	0,00000E+000	-1,86000E-001	-1,54956E-004	10	...........	0
	96	19,4	-1,91530E-001	-2,72213E-005	0,00000E+000	-1,92000E-001	-1,47906E-004	10	...........	0
	99	20	-1,97523E-001	-2,80864E-005	0,00000E+000	-1,98000E-001	-1,54506E-004	10	...........	0
	102	20,6	-2,03517E-001	-2,89460E-005	0,00000E+000	-2,04000E-001	-1,60906E-004	10	...........	0
	105	21,2	-2,09514E-001	-2,94500E-005	0,00000E+000	-2,10000E-001	-1,62356E-004	10	...........	0
	108	21,8	-2,15506E-001	-2,31566E-005	0,00000E+000	-2,16000E-001	-1,61656E-004	10	...........	0
	111	22,4	-2,21503E-001	-2,15196E-005	0,00000E+000	-2,22000E-001	-1,60356E-004	10	...........	0
	114	23	-2,27500E-001	-2,12674E-005	0,00000E+000	-2,28000E-001	-1,63506E-004	10	...........	0
	117	23,6	-2,33493E-001	-2,12363E-005	0,00000E+000	-2,34000E-001	-1,57256E-004	10	...........	0
	120	24,2	-2,39485E-001	-2,11054E-005	0,00000E+000	-2,40000E-001	-1,64406E-004	10	...........	0
	123	24,8	-2,45482E-001	-2,11721E-005	0,00000E+000	-2,46000E-001	-1,68256E-004	10	...........	0
	126	25,4	-2,51469E-001	-3,45524E-005	0,00000E+000	-2,52000E-001	-1,69206E-004	10	...........	0
	129	26	-2,57470E-001	-3,53021E-005	0,00000E+000	-2,58000E-001	-1,68206E-004	10	...........	0
	132	26,6	-2,63464E-001	-3,66888E-005	0,00000E+000	-2,64000E-001	-1,62406E-004	10	...........	0
	135	27,2	-2,69470E-001	-3,73663E-005	0,00000E+000	-2,70000E-001	-1,67706E-004	10	...........	0
	138	27,8	-2,75445E-001	-3,80950E-005	0,00000E+000	-2,76000E-001	-1,72256E-004	10	...........	0
	141	28,4	-2,81471E-001	-3,92741E-005	0,00000E+000	-2,82000E-001	-1,68306E-004	10	...........	0
	144	29	-2,87423E-001	-4,07957E-005	0,00000E+000	-2,88000E-001	-1,55956E-004	10	...........	0
	147	29,6	-2,93491E-001	-2,93196E-005	0,00000E+000	-2,94000E-001	-1,64356E-004	10	...........	0
	150	30,2	-2,99447E-001	-2,54294E-005	0,00000E+000	-3,00000E-001	-1,56506E-004	10	...........	0
	153	30,8	-3,05456E-001	-2,55799E-005	0,00000E+000	-3,06000E-001	-1,61806E-004	10	...........	0
[...]
	189	38	-3,77388E-001	-6,79449E-005	0,00000E+000	-3,78000E-001	-1,63506E-004	10	...........	0
	192	38,6	-3,83395E-001	-7,02383E-005	0,00000E+000	-3,84000E-001	-1,72556E-004	10	...........	0
	195	39,2	-3,89368E-001	-7,31130E-005	0,00000E+000	-3,90000E-001	-1,64906E-004	10	...........	0
	198	39,8	-3,95392E-001	-7,62168E-005	0,00000E+000	-3,96000E-001	-1,58006E-004	10	...........	0
	201	40,4	-4,01373E-001	-7,92580E-005	0,00000E+000	-4,02000E-001	-1,55806E-004	10	...........	0
	204	41	-4,07381E-001	-8,26045E-005	0,00000E+000	-4,08000E-001	-1,60056E-004	10	...........	0
	207	41,6	-4,13320E-001	-8,60344E-005	0,00000E+000	-4,14000E-001	-1,58956E-004	10	...........	0
	210	42,2	-4,19362E-001	-8,97365E-005	0,00000E+000	-4,20000E-001	-1,55906E-004	10	...........	0
	213	42,8	-4,25339E-001	-9,33278E-005	0,00000E+000	-4,26000E-001	-1,65056E-004	10	...........	0
	216	43,4	-4,31349E-001	-9,75460E-005	0,00000E+000	-4,32000E-001	-1,68606E-004	10	...........	0
	219	44	-4,37310E-001	-1,01699E-004	0,00000E+000	-4,38000E-001	-1,52606E-004	10	...........	0
	222	44,6	-4,43355E-001	-1,06158E-004	0,00000E+000	-4,44000E-001	-1,61606E-004	10	...........	0
	225	45,2	-4,49326E-001	-1,10086E-004	0,00000E+000	-4,50000E-001	-1,59406E-004	10	...........	0
	228	45,8	-4,55336E-001	-1,14238E-004	0,00000E+000	-4,56000E-001	-1,67756E-004	10	...........	0
	231	46,4	-4,61287E-001	-1,18309E-004	0,00000E+000	-4,62000E-001	-1,51256E-004	10	...........	0
	234	47	-4,67343E-001	-1,22606E-004	0,00000E+000	-4,68000E-001	-1,52156E-004	10	...........	0
	237	47,6	-4,73230E-001	-1,27065E-004	0,00000E+000	-4,74000E-001	-1,62406E-004	10	...........	0
	240	48,2	-4,79316E-001	-1,32341E-004	0,00000E+000	-4,80000E-001	-1,64206E-004	10	...........	0
	243	48,8	-4,85306E-001	-1,37620E-004	0,00000E+000	-4,86000E-001	-1,61906E-004	10	...........	0
	246	49,4	-4,91325E-001	-1,41936E-004	0,00000E+000	-4,92000E-001	-1,56056E-004	10	...........	0
	249	50	-4,97242E-001	-1,48130E-004	0,00000E+000	-4,98000E-001	-1,54606E-004	10	...........	0
	252	50,6	-5,03306E-001	-1,51646E-004	0,00000E+000	-5,04000E-001	-1,56456E-004	10	...........	0
	255	51,2	-5,09288E-001	-1,57704E-004	0,00000E+000	-5,10000E-001	-1,58956E-004	10	...........	0
	258	51,8	-5,15291E-001	-1,62715E-004	0,00000E+000	-5,16000E-001	-1,57906E-004	10	...........	0
	261	52,4	-5,21199E-001	-1,69454E-004	0,00000E+000	-5,22000E-001	-1,50156E-004	10	...........	0
	264	53	-5,27258E-001	-1,73805E-004	0,00000E+000	-5,28000E-001	-1,57756E-004	10	...........	0
	267	53,6	-5,33239E-001	-1,79505E-004	0,00000E+000	-5,34000E-001	-1,63456E-004	10	...........	0
	270	54,2	-5,39267E-001	-1,85009E-004	0,00000E+000	-5,40000E-001	-1,54906E-004	10	...........	0
	273	54,8	-5,45169E-001	-1,91420E-004	0,00000E+000	-5,46000E-001	-1,70556E-004	10	...........	0
	276	55,4	-5,51231E-001	-1,97628E-004	0,00000E+000	-5,52000E-001	-1,70956E-004	10	...........	0
	279	56	-5,57231E-001	-2,03793E-004	0,00000E+000	-5,58000E-001	-1,52506E-004	10	...........	0
	282	56,6	-5,63243E-001	-2,09684E-004	0,00000E+000	-5,64000E-001	-1,68856E-004	10	...........	0
	285	57,2	-5,69164E-001	-2,15862E-004	0,00000E+000	-5,70000E-001	-1,71906E-004	10	...........	0
	288	57,8	-5,75272E-001	-2,23876E-004	0,00000E+000	-5,76000E-001	-1,70306E-004	10	...........	0
	291	58,4	-5,81201E-001	-2,30014E-004	0,00000E+000	-5,82000E-001	-1,78906E-004	10	...........	0
	294	59	-5,87237E-001	-2,37312E-004	0,00000E+000	-5,88000E-001	-1,67306E-004	10	...........	0
	297	59,6	-5,93147E-001	-2,45541E-004	0,00000E+000	-5,94000E-001	-1,76956E-004	10	...........	0
	300	60,2	-5,99247E-001	-2,50639E-004	0,00000E+000	-6,00000E-001	-1,59156E-004	10	...........	0