Folder: Master2018/Lab/XRD/20170407

File: cu2o_002_after_ilum-4-1217-1.txt
Angle Intensity Error
10.000 234.000 1.000
10.280 240.000 1.000
10.560 241.000 1.000
10.840 228.000 1.000
11.120 234.000 1.000
11.400 228.000 1.000
11.680 235.000 1.000
11.960 233.000 1.000
12.240 240.000 1.000
12.520 243.000 1.000
12.800 249.000 1.000
13.080 236.000 1.000
13.360 250.000 1.000
13.640 245.000 1.000
13.920 244.000 1.000
14.200 256.000 1.000
14.480 248.000 1.000
14.760 278.000 1.000
15.040 283.000 1.000
15.320 270.000 1.000
15.600 287.000 1.000
15.880 295.000 1.000
16.160 282.000 1.000
16.440 295.000 1.000
16.720 315.000 1.000
17.000 313.000 1.000
17.280 344.000 1.000
17.560 313.000 1.000
17.840 342.000 1.000
18.120 339.000 1.000
18.400 365.000 1.000
18.680 362.000 1.000
18.960 367.000 1.000
19.240 386.000 1.000
19.520 379.000 1.000
19.800 397.000 1.000
20.080 381.000 1.000
20.360 431.000 1.000
20.640 423.000 1.000
20.920 379.000 1.000
21.200 416.000 1.000
21.480 445.000 1.000
21.760 447.000 1.000
22.040 453.000 1.000
22.320 412.000 1.000
22.600 507.000 1.000
22.880 474.000 1.000
23.160 492.000 1.000
23.440 506.000 1.000
23.720 602.000 1.000
24.000 565.000 1.000
24.280 660.000 1.000
24.560 754.000 1.000
24.840 954.000 1.000
25.120 1232.000 1.000
25.400 1655.000 1.000
25.680 2251.000 1.000
25.960 2851.000 1.000
26.240 4097.000 1.000
26.520 10195.000 1.000
26.800 1475.000 1.000
27.080 794.000 1.000
27.360 612.000 1.000
27.640 494.000 1.000
27.920 423.000 1.000
28.200 374.000 1.000
28.480 367.000 1.000
28.760 329.000 1.000
29.040 331.000 1.000
29.320 320.000 1.000
29.600 470.000 1.000
29.880 286.000 1.000
30.160 285.000 1.000
30.440 285.000 1.000
30.720 273.000 1.000
31.000 253.000 1.000
31.280 252.000 1.000
31.560 270.000 1.000
31.840 382.000 1.000
32.120 265.000 1.000
32.400 255.000 1.000
32.680 262.000 1.000
32.960 246.000 1.000
33.240 251.000 1.000
33.520 227.000 1.000
33.800 244.000 1.000
34.080 319.000 1.000
34.360 249.000 1.000
34.640 239.000 1.000
34.920 228.000 1.000
35.200 250.000 1.000
35.480 248.000 1.000
35.760 304.000 1.000
36.040 357.000 1.000
36.320 1375.000 1.000
36.600 1324.000 1.000
36.880 356.000 1.000
37.160 263.000 1.000
37.440 264.000 1.000
37.720 227.000 1.000
38.000 280.000 1.000
38.280 246.000 1.000
38.560 231.000 1.000
38.840 232.000 1.000
39.120 247.000 1.000
39.400 249.000 1.000
39.680 225.000 1.000
39.960 214.000 1.000
40.240 239.000 1.000
40.520 244.000 1.000
40.800 221.000 1.000
41.080 260.000 1.000
41.360 246.000 1.000
41.640 250.000 1.000
41.920 292.000 1.000
42.200 551.000 1.000
42.480 579.000 1.000
42.760 345.000 1.000
43.040 329.000 1.000
43.320 431.000 1.000
43.600 303.000 1.000
43.880 279.000 1.000
44.160 258.000 1.000
44.440 263.000 1.000
44.720 249.000 1.000
45.000 226.000 1.000
45.280 240.000 1.000
45.560 202.000 1.000
45.840 230.000 1.000
46.120 216.000 1.000
46.400 214.000 1.000
46.680 233.000 1.000
46.960 212.000 1.000
47.240 217.000 1.000
47.520 208.000 1.000
47.800 222.000 1.000
48.080 199.000 1.000
48.360 212.000 1.000
48.640 215.000 1.000
48.920 200.000 1.000
49.200 210.000 1.000
49.480 204.000 1.000
49.760 222.000 1.000
50.040 196.000 1.000
50.320 233.000 1.000
50.600 227.000 1.000
50.880 196.000 1.000
51.160 182.000 1.000
51.440 205.000 1.000
51.720 218.000 1.000
52.000 211.000 1.000
52.280 205.000 1.000
52.560 274.000 1.000
52.840 248.000 1.000
53.120 250.000 1.000
53.400 255.000 1.000
53.680 263.000 1.000
53.960 268.000 1.000
54.240 343.000 1.000
54.520 462.000 1.000
54.800 256.000 1.000
55.080 206.000 1.000
55.360 190.000 1.000
55.640 185.000 1.000
55.920 182.000 1.000
56.200 184.000 1.000
56.480 176.000 1.000
56.760 177.000 1.000
57.040 186.000 1.000
57.320 192.000 1.000
57.600 179.000 1.000
57.880 177.000 1.000
58.160 181.000 1.000
58.440 168.000 1.000
58.720 180.000 1.000
59.000 184.000 1.000
59.280 169.000 1.000
59.560 182.000 1.000
59.840 170.000 1.000
60.120 184.000 1.000
60.400 169.000 1.000
60.680 177.000 1.000
60.960 209.000 1.000
61.240 332.000 1.000
61.520 445.000 1.000
61.800 232.000 1.000
62.080 174.000 1.000
62.360 175.000 1.000
62.640 188.000 1.000
62.920 154.000 1.000
63.200 161.000 1.000
63.480 180.000 1.000
63.760 144.000 1.000
64.040 147.000 1.000
64.320 159.000 1.000
64.600 149.000 1.000
64.880 147.000 1.000
65.160 140.000 1.000
65.440 163.000 1.000
65.720 143.000 1.000
66.000 139.000 1.000
66.280 162.000 1.000
66.560 166.000 1.000
66.840 169.000 1.000
67.120 167.000 1.000
67.400 150.000 1.000
67.680 147.000 1.000
67.960 160.000 1.000
68.240 136.000 1.000
68.520 139.000 1.000
68.800 156.000 1.000
69.080 145.000 1.000
69.360 131.000 1.000
69.640 136.000 1.000
69.920 162.000 1.000
70.200 145.000 1.000
70.480 170.000 1.000
70.760 147.000 1.000
71.040 144.000 1.000
71.320 131.000 1.000
71.600 132.000 1.000
71.880 154.000 1.000
72.160 168.000 1.000
72.440 152.000 1.000
72.720 154.000 1.000
73.000 159.000 1.000
73.280 214.000 1.000
73.560 293.000 1.000
73.840 239.000 1.000
74.120 188.000 1.000
74.400 163.000 1.000
74.680 147.000 1.000
74.960 140.000 1.000
75.240 145.000 1.000
75.520 136.000 1.000
75.800 118.000 1.000
76.080 137.000 1.000
76.360 143.000 1.000
76.640 146.000 1.000
76.920 155.000 1.000
77.200 171.000 1.000
77.480 191.000 1.000
77.760 172.000 1.000
78.040 141.000 1.000
78.320 147.000 1.000
78.600 132.000 1.000
78.880 146.000 1.000
79.160 158.000 1.000
79.440 130.000 1.000
79.720 133.000 1.000
80.000 136.000 1.000
80.280 152.000 1.000
80.560 149.000 1.000
80.840 130.000 1.000
81.120 131.000 1.000
81.400 142.000 1.000
81.680 145.000 1.000
81.960 150.000 1.000
82.240 142.000 1.000
82.520 144.000 1.000
82.800 148.000 1.000
83.080 142.000 1.000
83.360 137.000 1.000
83.640 161.000 1.000
83.920 152.000 1.000
84.200 126.000 1.000
84.480 134.000 1.000
84.760 140.000 1.000
85.040 134.000 1.000
85.320 133.000 1.000
85.600 140.000 1.000
85.880 149.000 1.000
86.160 140.000 1.000
86.440 140.000 1.000
86.720 139.000 1.000
87.000 129.000 1.000
87.280 151.000 1.000
87.560 129.000 1.000
87.840 119.000 1.000
88.120 119.000 1.000
88.400 125.000 1.000
88.680 108.000 1.000
88.960 146.000 1.000
89.240 113.000 1.000
89.520 130.000 1.000
89.800 139.000 1.000
90.000 139.000 1.000